>compound 
>formula C21H27NO5
>parentmass 374.1962
>ionization [M + H]+
>instrumentation Unknown (LCMS)
>source file:/Users/fanzhoukong/Documents/GitHub/Libgen/data/NIST_MONA/0_unknown_/spectrum.ms
>quality UNKNOWN

>ms2peaks
55.0178 0.207525
55.0542 0.147655
57.0698 0.214628
67.0542 1.180232
69.0333 0.209449
79.0542 0.682892
81.0333 0.158281
81.0699 0.689323
82.0651 0.121715
91.0542 1.501658
93.0698 0.255027
95.0491 0.240456
95.0854 0.100722
96.0807 2.299388
105.0698 0.72292
106.065 0.115726
107.0491 0.257004
107.0854 0.190813
108.0809 0.205386
115.054 0.399278
117.0698 6.564432
119.0491 0.390219
119.0855 4.615956
121.0648 0.129675
121.1011 0.145654
124.0757 1.390117
129.0698 0.653257
130.0776 0.148026
131.0855 1.241479
133.0646 0.604139
133.1011 0.431231
136.0758 1.519347
141.07 0.132602
142.078 0.100199
142.0863 0.106277
143.0856 2.974902
145.0647 2.279995
145.1011 7.203679
146.0599 0.298195
146.0727 0.1275
147.0803 1.366561
147.1168 1.913349
155.0855 5.206758
156.0933 0.296953
157.0646 0.176856
157.1012 1.363478
158.0726 0.434637
159.0804 0.83073
159.1169 0.687835
160.1121 0.368582
161.0961 0.181384
164.0706 0.253832
165.0696 0.100199
167.0854 0.314688
168.093 0.150271
169.1011 1.560541
171.0806 0.871452
171.1168 1.35541
172.112 0.39551
173.0597 9.291676
173.096 3.843341
174.0917 0.135298
175.1116 0.256803
179.0856 0.376042
180.0934 0.113938
181.1012 1.403532
182.1089 0.890416
183.0804 0.391638
183.1169 3.14124
185.0962 0.269019
185.1322 0.209343
186.0908 0.102736
187.0755 0.282878
187.1116 0.173568
188.1071 0.774872
190.0863 0.561738
192.0936 0.712727
193.1013 0.203356
194.0563 0.332193
194.1092 0.47261
195.1171 0.516772
196.0758 1.023321
196.1246 0.554226
197.0967 0.287739
197.1325 5.665032
198.0911 0.215524
199.0754 0.352738
199.1118 0.218832
199.1479 0.480136
200.107 0.66983
200.1432 0.11655
201.08 0.130247
201.091 1.623922
206.1089 0.162165
207.1168 2.385027
208.1247 0.105156
209.1325 0.686026
210.0911 0.167021
210.1039 0.558582
211.0755 0.313491
211.1113 0.113825
211.1482 0.366115
214.0862 1.325444
214.159 1.180089
215.0942 0.244338
216.1018 100.0
222.0873 0.185642
224.1194 0.300634
224.1432 0.432284
225.1273 3.980235
225.1635 0.682583
227.1428 0.271679
228.1017 1.028616
228.1377 0.274961
229.1095 0.150406
234.1277 0.191315
235.1116 0.376955
235.1483 0.278126
237.1145 0.254259
242.0813 0.113776
242.1173 0.155282
242.1537 1.128018
242.1907 0.265431
244.1332 29.355296
251.1304 0.17746
252.1382 1.489438
253.1222 4.209577
253.1581 0.54697
254.1178 0.107876
256.1329 0.251543
268.1332 0.44751
269.1404 0.254124
270.1487 37.067792
280.1696 0.143737
281.1521 0.264093
286.144 0.799034
298.1801 5.625548
302.1751 7.997019
330.2064 0.871965

