>compound 
>formula C12H22O12
>parentmass 381.1003471439001
>ionization [M + Na]+
>instrumentation Unknown (LCMS)
>source file:/Users/fanzhoukong/Documents/GitHub/Libgen/data/EAD_PFP/0_unknown_/spectrum.ms
>quality UNKNOWN

>ms2peaks
50.015795 72.0
51.023992 378.0
52.026 56.0
53.039887 166.0
54.035484 22.0
55.054862 116.0
56.048559 14.0
57.035617 14.0
57.936544 13.0
59.051371 35.0
60.985026 46.0
63.021371 73.0
63.023701 345.0
64.029338 56.0
65.039786 827.0
66.038233 36.0
66.044603 77.0
67.0483 79.0
67.05391 217.0
68.024818 33.0
68.055528 22.0
68.997005 329.0
69.016535 120.0
74.016182 32.0
75.02334 53.0
76.031327 112.0
77.040024 813.0
78.046712 166.0
79.055579 283.0
80.049886 50.0
81.049534 24.0
81.073344 72.0
83.052249 28.0
83.078138 30.0
86.014451 24.0
87.023138 18.0
88.034025 13.0
89.038733 312.0
90.04357 52.0
91.054968 1057.0
92.057925 325.0
92.995513 54.0
93.069212 53.0
94.06701 72.0
95.053897 41.0
95.082557 41.0
95.951875 18.0
96.088184 23.0
97.063392 18.0
97.95236 14.0
99.990144 26.0
101.037081 31.0
102.045939 77.0
103.053826 130.0
104.050684 40.0
104.062674 24.0
105.068411 148.0
106.066868 71.0
107.063966 28.0
109.07523 22.0
109.09876 32.0
110.999915 34.0
112.004333 21.0
112.99973 65.0
114.034057 22.0
115.057335 513.0
116.048242 15.0
116.057742 109.0
117.05612 65.0
117.067779 185.0
118.065157 55.0
118.074737 41.0
119.052874 27.0
119.081744 36.0
120.080132 30.0
121.030959 153.0
122.098076 19.0
123.042714 29.0
124.114281 15.0
125.026139 18.0
126.045796 55.0
127.056343 78.0
128.059841 280.0
129.058378 51.0
130.064155 116.0
130.991963 57.0
131.057003 74.0
131.073833 46.0
132.01198 24.0
132.04462 14.0
133.082278 37.0
134.099025 25.0
135.053632 22.0
137.026867 30.0
139.050222 44.0
140.053539 20.0
141.070947 117.0
142.065184 45.0
143.072261 31.0
144.080569 61.0
145.079426 59.0
145.968094 44.0
147.091061 41.0
147.960829 14.0
149.063906 44.0
150.045073 24.0
150.126683 14.0
151.054731 66.0
152.062938 201.0
153.069655 104.0
154.069973 71.0
155.08574 50.0
156.073017 29.0
156.087707 35.0
157.076955 33.0
158.090242 19.0
158.102572 21.0
159.04626 23.0
159.08209 34.0
160.093147 18.0
161.096214 22.0
162.984179 16.0
163.040449 33.0
164.063996 17.0
165.018994 127.0
165.041654 67.0
165.068084 58.0
166.068911 30.0
167.072779 51.0
168.073316 49.0
169.073023 23.0
169.089583 14.0
170.073151 10.0
170.087181 20.0
170.098691 23.0
171.054418 45.0
173.071843 18.0
173.106643 24.0
174.09274 37.0
175.010378 20.0
175.053148 17.0
176.061675 32.0
177.062642 14.0
177.092632 27.0
178.07563 67.0
179.032507 49.0
179.069217 23.0
179.096747 38.0
180.078705 29.0
180.087905 44.0
181.075222 58.0
182.090339 13.0
183.046017 35.0
183.079137 23.0
183.091077 25.0
184.098514 22.0
185.071431 24.0
187.038346 16.0
187.077196 30.0
189.066811 37.0
190.073008 28.0
191.003326 49.0
191.073736 45.0
192.005143 19.0
192.068943 27.0
192.983721 67.0
193.064021 19.0
194.086238 23.0
195.101565 26.0
196.115433 12.0
197.07967 23.0
198.131747 22.0
199.041485 17.0
199.088465 16.0
201.0658 40.0
202.057427 27.0
203.034744 27.0
203.072434 28.0
204.078782 13.0
205.093239 20.0
206.097546 35.0
207.033834 111.0
208.034401 15.0
208.109291 16.0
209.067129 34.0
209.088369 78.0
210.119446 20.0
211.101803 34.0
213.059118 24.0
215.084353 27.0
216.08545 29.0
217.058548 32.0
217.085978 29.0
218.070005 37.0
219.092522 23.0
221.087887 23.0
223.099632 32.0
227.069242 35.0
229.051626 41.0
231.093231 25.0
232.112958 12.0
233.115496 16.0
234.103693 14.0
235.15106 12.0
238.066823 18.0
239.07605 18.0
240.061608 14.0
241.046155 17.0
241.081145 21.0
242.055582 111.0
243.03199 27.0
243.06559 27.0
244.102177 17.0
245.045894 39.0
248.987334 16.0
249.063094 15.0
250.972959 19.0
253.053724 28.0
253.105153 23.0
253.164373 26.0
254.059851 120.0
255.042938 63.0
255.066408 41.0
256.076536 32.0
257.118493 18.0
261.079483 26.0
263.103127 16.0
264.090805 15.0
265.022922 29.0
266.060549 37.0
267.056947 29.0
267.069767 32.0
269.036072 27.0
269.047332 56.0
270.029989 15.0
270.052549 48.0
270.055749 176.0
271.061236 168.0
275.027076 15.0
277.081121 18.0
277.14472 23.0
279.059355 30.0
279.077365 29.0
281.02655 17.0
281.05285 84.0
281.07913 30.0
282.052238 84.0
283.055045 1503.0
284.066272 219.0
289.079379 31.0
291.066494 10.0
292.073481 48.0
293.080529 33.0
293.182828 62.0
294.059046 103.0
295.059434 536.0
297.063588 69.0
297.070328 110.0
305.082937 27.0
306.091575 48.0
307.093312 78.0
308.06917 53.0
308.081189 57.0
309.072407 199.0
310.049664 22.0
310.089334 27.0
311.094122 237.0
313.063506 96.0
313.070436 467.0
317.085446 18.0
319.089431 46.0
319.099931 112.0
320.068378 31.0
321.076885 199.0
323.05997 62.0
323.06876 40.0
325.103885 50.0
333.077654 36.0
333.099074 21.0
334.088541 113.0
335.093789 506.0
336.066446 23.0
337.069244 65.0
338.075381 13.0
338.116821 28.0
338.143831 15.0
339.079408 33.0
339.092008 105.0
344.070905 17.0
345.061963 18.0
345.076523 154.0
345.085613 77.0
349.150152 47.0
353.104112 57.0
361.067661 37.0
362.080988 206.0
363.086425 2334.0
380.091991 63.0
381.101078 2096.0
381.150798 38.0

