>compound 
>formula C66H100O25
>parentmass 1315.64458971225
>ionization [M + Na]+
>instrumentation Unknown (LCMS)
>source file:/Users/fanzhoukong/Documents/GitHub/Libgen/data/EAD_PFP/0_unknown_/spectrum.ms
>quality UNKNOWN

>ms2peaks
68.997589 22.0
126.049328 117.0
128.05787 150.0
130.066652 110.0
131.064013 55.0
137.035208 22.0
139.05517 100.0
140.05503 57.0
141.070121 82.0
142.065512 59.0
143.080823 140.0
144.080924 80.0
145.968476 35.0
146.084486 22.0
165.071122 202.0
167.078374 133.0
168.076405 97.0
169.085036 147.0
171.097267 23.0
173.107209 33.0
176.063542 50.0
178.076223 150.0
179.080314 102.0
181.078486 60.0
182.190137 51.0
186.07295 31.0
189.066153 172.0
190.073694 145.0
191.079845 120.0
192.080516 54.0
192.978976 162.0
195.095448 45.0
201.063783 70.0
202.076304 113.0
203.088565 138.0
204.085166 47.0
207.030419 128.0
208.029559 50.0
209.01412 29.0
216.092086 82.0
218.102718 42.0
220.11687 23.0
225.040574 31.0
227.179446 23.0
229.100028 40.0
232.11543 117.0
239.087666 23.0
248.980695 37.0
250.967847 32.0
265.019329 72.0
269.104782 41.0
281.052483 171.0
285.102076 23.0
302.112681 23.0
315.117122 23.0
317.120114 83.0
325.290951 22.0
327.139893 78.0
329.294465 23.0
331.104806 119.0
345.127338 63.0
357.154299 38.0
361.112272 243.0
397.229034 74.0
403.159069 154.0
434.368316 24.0
449.159529 25.0
459.213927 24.0
461.195649 64.0
471.212958 41.0
471.223578 24.0
489.195023 169.0
491.214315 65.0
505.177217 188.0
505.190437 551.0
507.202699 145.0
543.2602 24.0
547.254164 208.0
559.275104 56.0
561.273886 65.0
563.232018 80.0
567.275291 41.0
589.26488 59.0
601.313411 24.0
605.281124 45.0
619.262466 27.0
625.337602 25.0
633.238248 24.0
633.280118 271.0
635.2983 25.0
649.268102 242.0
651.266584 117.0
651.289044 221.0
659.288561 44.0
687.352795 108.0
691.311109 264.0
705.352261 44.0
707.304893 84.0
721.309425 25.0
733.348625 45.0
769.458027 25.0
777.342253 127.0
791.367166 25.0
793.352577 253.0
797.223001 25.0
801.413374 152.0
815.442987 99.0
817.419188 57.0
818.419369 22.0
831.41529 53.0
831.42378 205.0
845.436243 25.0
877.4417 204.0
917.492275 25.0
931.473547 64.0
933.501749 61.0
934.51365 27.0
944.491509 76.0
945.491259 307.0
961.493043 139.0
973.486224 77.0
975.507585 521.0
977.540297 93.0
1021.503895 837.0
1021.528925 388.0
1032.485295 22.0
1065.551734 54.0
1093.566768 41.0
1097.529051 26.0
1105.562998 152.0
1109.553472 97.0
1117.562519 83.0
1121.558122 72.0
1124.594745 26.0
1135.564244 35.0
1135.577424 309.0
1139.545568 37.0
1150.497847 26.0
1151.571338 63.0
1153.62346 26.0
1167.593442 87.0
1176.55805 144.0
1176.60847 26.0
1181.590284 361.0
1213.598972 41.0
1213.629612 84.0
1228.623405 106.0
1229.626216 55.0
1241.657836 26.0
1253.619767 26.0
1255.604509 111.0
1256.618299 174.0
1268.65188 26.0
1269.576691 45.0
1270.655542 30.0
1271.619532 385.0
1272.618803 403.0
1272.643213 565.0
1283.629803 94.0
1284.633704 119.0
1297.647145 60.0
1299.599417 60.0
1313.625429 185.0
1314.6446 603.0
1315.642891 9581.0

