>compound 
>formula C22H22O11
>parentmass 485.10543252433
>ionization [M + Na]+
>instrumentation Unknown (LCMS)
>source file:/Users/fanzhoukong/Documents/GitHub/Libgen/data/EAD_PFP/0_unknown_/spectrum.ms
>quality UNKNOWN

>ms2peaks
50.014552 328.0
51.024151 690.0
52.03112 109.0
53.038648 160.0
54.042147 33.0
55.055056 443.0
56.048765 56.0
57.069123 84.0
59.049341 16.0
60.983749 55.0
62.014707 80.0
63.023186 250.0
64.028835 33.0
65.039273 1110.0
66.042502 98.0
67.054211 396.0
68.03321 75.0
68.05826 25.0
68.994879 155.0
73.047994 15.0
74.015702 49.0
75.015231 88.0
76.02146 53.0
76.03171 74.0
77.039549 1373.0
78.045377 233.0
79.054246 513.0
80.051175 147.0
81.069354 210.0
82.062012 28.0
83.086611 41.0
84.08432 21.0
86.013098 17.0
87.026346 13.0
88.020715 16.0
89.040144 261.0
90.045923 40.0
91.056401 1507.0
92.05655 300.0
92.995079 23.0
93.064999 155.0
94.064688 99.0
94.069438 74.0
95.054426 23.0
95.064936 130.0
95.086906 96.0
95.954335 16.0
97.072624 20.0
98.098403 39.0
102.047508 113.0
103.053426 344.0
104.060285 70.0
105.048934 63.0
105.070024 204.0
107.008852 89.0
107.058512 53.0
108.07757 25.0
109.099409 24.0
109.102469 48.0
110.099318 29.0
111.001597 23.0
112.110765 17.0
112.999364 43.0
115.050672 22.0
115.055922 781.0
116.05633 76.0
117.064239 128.0
118.055228 33.0
118.070128 63.0
119.070697 67.0
120.080855 31.0
121.047854 22.0
121.094204 48.0
122.102063 12.0
123.996111 19.0
125.003899 18.0
126.050968 41.0
127.047187 64.0
127.058227 99.0
128.060626 299.0
129.059174 18.0
129.069194 124.0
130.064953 113.0
130.991652 24.0
131.049972 184.0
132.020671 34.0
132.082591 39.0
133.046949 32.0
133.088759 35.0
134.091928 22.0
134.996417 18.0
135.100017 36.0
136.114156 18.0
137.065574 13.0
139.041842 27.0
139.054552 79.0
140.049771 40.0
141.068339 171.0
141.924818 13.0
142.061388 20.0
142.077738 91.0
143.076677 67.0
144.080306 77.0
145.087414 87.0
145.970193 32.0
146.082653 17.0
147.084862 25.0
147.110982 25.0
147.965341 31.0
148.088091 13.0
150.047218 38.0
151.052077 25.0
152.061476 91.0
153.071835 143.0
154.073373 29.0
155.078182 22.0
156.081361 47.0
157.09146 34.0
158.096188 35.0
159.107807 32.0
161.058705 14.0
161.095995 26.0
162.093483 30.0
163.055252 38.0
164.056261 37.0
165.07291 175.0
166.071239 36.0
167.083977 35.0
168.061706 19.0
168.079476 71.0
169.074105 26.0
169.084305 32.0
170.061454 15.0
170.075514 41.0
170.099784 37.0
171.041432 50.0
172.112881 18.0
173.10647 42.0
174.109379 15.0
174.135239 19.0
174.999837 24.0
175.148897 19.0
176.053696 20.0
176.061496 24.0
177.054675 18.0
177.080755 33.0
178.066334 29.0
178.072864 68.0
179.059892 18.0
179.086102 54.0
180.078561 34.0
181.07112 16.0
181.08694 25.0
182.083579 33.0
182.098129 32.0
182.191999 19.0
183.036588 24.0
183.117437 25.0
185.044635 19.0
185.117945 24.0
186.116264 19.0
187.070363 20.0
189.07208 116.0
190.064769 23.0
190.076939 24.0
191.000498 86.0
191.079038 23.0
192.002316 51.0
192.979535 29.0
192.997215 91.0
193.009475 360.0
194.011084 12.0
194.978343 17.0
195.028973 22.0
195.094633 25.0
195.112423 27.0
196.113971 15.0
197.07958 19.0
198.065479 20.0
198.133029 18.0
200.143056 16.0
201.065725 13.0
201.165745 19.0
202.076844 45.0
203.142163 66.0
204.081522 18.0
205.01323 16.0
205.09738 31.0
205.16333 17.0
207.033778 204.0
208.037167 55.0
209.030245 41.0
209.078405 33.0
211.046273 25.0
212.143502 22.0
212.9933 38.0
214.062619 40.0
215.054158 16.0
215.087208 27.0
216.154537 25.0
217.091735 14.0
217.163905 16.0
218.080124 23.0
219.133093 16.0
221.010701 16.0
223.074768 12.0
224.082537 13.0
225.044066 36.0
226.075424 16.0
227.069273 41.0
228.086012 12.0
229.059061 12.0
235.103043 24.0
235.116563 26.0
237.076361 12.0
237.117081 14.0
239.065488 22.0
241.099456 18.0
242.986243 20.0
243.212303 21.0
248.984346 18.0
250.973074 17.0
250.994793 18.0
257.077756 40.0
263.004749 33.0
265.023086 55.0
266.023935 14.0
266.996284 20.0
268.981641 11.0
273.065036 18.0
275.093874 23.0
279.046479 20.0
281.044856 54.0
281.053066 116.0
282.050805 35.0
283.045404 29.0
285.144001 14.0
287.102649 16.0
295.088299 14.0
297.077337 61.0
311.148029 24.0
313.063827 28.0
313.077717 34.0
314.059555 24.0
315.093334 5018.0
316.107953 30.0
316.569682 64.0
317.084052 19.0
322.147155 24.0
323.058564 41.0
326.028721 12.0
331.084004 29.0
333.094142 19.0
335.03502 16.0
336.045308 23.0
337.053487 36.0
341.019972 12.0
341.173752 13.0
343.13801 6.0
349.289762 6.0
353.042017 15.0
353.056757 28.0
353.207697 12.0
357.017902 16.0
365.208692 23.0
369.158207 25.0
371.165445 19.0
380.249204 12.0
387.317215 6.0
395.077065 13.0
395.176365 12.0
425.086578 38.0
425.102748 30.0
432.193229 12.0
435.102216 13.0
439.323861 26.0
467.084516 28.0
467.095096 46.0
467.313176 17.0
469.244394 12.0
483.093926 112.0
483.479386 17.0
483.533256 27.0
484.102095 710.0
485.109204 9248.0

