>compound 
>formula C10H14O4
>parentmass 221.0784299295
>ionization [M + Na]+
>instrumentation Unknown (LCMS)
>source file:/Users/fanzhoukong/Documents/GitHub/Libgen/data/EAD_PFP/0_unknown_/spectrum.ms
>quality UNKNOWN

>ms2peaks
50.015932 135.0
51.02344 356.0
52.031098 70.0
53.037917 93.0
54.034935 19.0
55.052133 4.0
55.055763 186.0
55.934391 42.0
56.052411 11.0
56.058281 8.0
56.94189 7.0
56.96407 10.0
57.070579 28.0
59.048566 50.0
60.985253 32.0
61.003612 10.0
61.012032 9.0
62.016991 45.0
63.023159 216.0
64.031147 16.0
65.040825 543.0
66.044854 55.0
67.053372 184.0
68.02509 10.0
68.04771 8.0
68.995658 118.0
72.937471 34.0
73.047111 6.0
74.013969 28.0
75.022818 42.0
76.032506 66.0
77.038634 1083.0
78.043592 206.0
79.055061 224.0
80.050249 61.0
81.069297 89.0
82.014045 8.0
83.085653 15.0
84.96147 7.0
85.00752 10.0
86.013938 11.0
87.042736 17.0
89.039153 248.0
89.940831 8.0
90.044921 34.0
91.057269 918.0
92.058358 167.0
92.995006 11.0
93.067756 59.0
94.042764 5.0
94.064614 54.0
95.048622 7.0
95.083962 22.0
95.952341 11.0
96.959649 5.0
97.949927 17.0
98.971545 6.0
100.112133 5.0
101.041522 10.0
102.03456 5.0
102.04842 76.0
102.928078 6.0
103.055328 110.0
104.051196 15.0
105.043825 6.0
105.070935 93.0
106.065373 31.0
107.073621 13.0
107.080721 24.0
108.076459 5.0
109.076798 8.0
109.098288 19.0
110.996344 6.0
112.001782 6.0
113.002391 11.0
115.056877 416.0
116.060445 89.0
117.059903 37.0
117.067323 85.0
118.057252 15.0
118.066832 25.0
119.08235 44.0
120.082898 24.0
121.064996 5.0
121.100566 7.0
122.092215 6.0
123.080303 8.0
125.039939 7.0
126.045358 30.0
126.901366 13.0
127.052596 96.0
128.062744 336.0
129.060172 7.0
129.069072 97.0
130.06818 98.0
130.991519 17.0
131.049839 8.0
131.065549 11.0
131.082379 7.0
132.019427 17.0
132.075717 14.0
133.015185 7.0
133.063775 6.0
133.101065 19.0
133.938704 6.0
134.070253 8.0
134.098623 6.0
134.953052 26.0
135.079392 9.0
135.95865 72.0
136.953058 11.0
137.098688 9.0
138.918145 34.0
139.055585 41.0
140.050823 22.0
141.070531 82.0
141.9282 12.0
142.062429 8.0
142.075279 37.0
142.992208 29.0
143.066008 5.0
143.078888 31.0
144.073106 11.0
144.081326 51.0
145.064864 5.0
145.076654 14.0
145.966522 18.0
146.078972 18.0
146.095542 6.0
147.965199 7.0
150.048285 13.0
151.051923 16.0
152.061352 75.0
153.06927 39.0
154.067148 86.0
155.063406 19.0
156.081215 27.0
157.099903 7.0
158.097261 37.0
159.090369 14.0
159.103959 7.0
161.094606 18.0
161.969874 14.0
163.050102 5.0
164.06616 13.0
165.070249 131.0
166.063517 20.0
166.076147 33.0
167.073705 36.0
168.059013 10.0
168.076783 34.0
168.083133 26.0
169.075232 19.0
169.103262 6.0
170.09325 19.0
171.089968 22.0
172.072886 7.0
172.111426 12.0
174.045893 10.0
175.039851 6.0
175.076151 6.0
175.135781 6.0
175.150031 6.0
176.060029 28.0
176.143239 5.0
177.049308 7.0
177.068847 23.0
178.076616 73.0
179.067584 11.0
179.084624 30.0
180.078392 30.0
180.972101 6.0
181.08151 11.0
182.084739 12.0
182.092679 17.0
183.037747 9.0
183.093417 9.0
184.043735 6.0
185.107123 6.0
186.125441 7.0
187.04474 7.0
188.050898 7.0
188.101958 6.0
189.070566 62.0
190.064605 11.0
190.076765 17.0
191.003043 25.0
191.069393 5.0
191.077503 14.0
192.083591 27.0
192.982079 42.0
193.097769 8.0
193.163119 9.0
194.088687 5.0
194.099607 15.0
195.091726 18.0
196.108304 6.0
197.113782 7.0
198.12458 14.0
199.034309 5.0
199.086829 6.0
200.065257 9.0
201.069705 5.0
202.076663 28.0
203.037282 67.0
203.146161 8.0
204.07993 22.0
205.094388 8.0
205.157528 31.0
205.980606 6.0
206.159196 48.0
207.032175 86.0
208.032743 16.0
208.116113 6.0
209.017311 6.0
209.106541 7.0
210.991988 13.0
211.987806 6.0
212.993114 6.0
214.073892 9.0
215.08557 21.0
217.088647 10.0
218.090045 19.0
218.097285 11.0
219.090853 14.0
220.109941 6.0
221.08041 502.0

