>compound 
>formula C47H76O18
>parentmass 951.49238660174
>ionization [M + Na]+
>instrumentation Unknown (LCMS)
>source file:/Users/fanzhoukong/Documents/GitHub/Libgen/data/EAD_PFP/0_unknown_/spectrum.ms
>quality UNKNOWN

>ms2peaks
119.998192 11.0
126.042146 26.0
126.902555 39.0
128.058384 75.0
128.060614 191.0
129.061372 50.0
130.063811 72.0
131.08694 42.0
135.111366 20.0
138.026003 42.0
139.053351 32.0
140.05554 41.0
141.068299 147.0
142.068358 49.0
143.070767 75.0
144.081416 74.0
146.109844 16.0
147.114513 27.0
164.059964 19.0
165.070323 212.0
166.063602 88.0
167.071251 88.0
168.079409 68.0
169.054928 32.0
169.100788 43.0
172.072965 21.0
172.111505 26.0
173.132164 54.0
175.148812 30.0
176.060111 42.0
177.066319 26.0
177.161489 38.0
178.075388 138.0
179.082087 69.0
180.083726 86.0
181.077605 51.0
181.100025 44.0
182.102004 46.0
184.038502 29.0
185.043231 172.0
187.101088 44.0
189.066596 67.0
190.075475 51.0
190.997684 48.0
191.078944 52.0
191.085704 55.0
192.979432 56.0
193.074702 35.0
194.094231 26.0
195.09726 48.0
196.102888 44.0
200.059794 24.0
201.039213 82.0
202.061412 61.0
202.076732 59.0
203.051311 155.0
204.14997 34.0
205.077629 30.0
207.029426 93.0
207.036476 113.0
208.031395 51.0
209.013124 18.0
209.127854 11.0
211.148602 58.0
213.0661 20.0
216.080976 28.0
217.081495 30.0
217.106025 38.0
218.091564 24.0
219.099613 71.0
223.115599 20.0
225.043927 23.0
227.051424 25.0
232.112849 21.0
237.159163 22.0
239.175931 23.0
241.082559 59.0
242.984557 20.0
244.111276 29.0
245.061155 49.0
246.160393 59.0
248.150171 12.0
251.173128 30.0
254.664424 46.0
257.063441 36.0
258.06808 47.0
259.077809 288.0
264.173543 31.0
265.018113 51.0
266.99928 25.0
275.069311 12.0
281.024935 12.0
281.049565 75.0
282.052244 37.0
287.072538 85.0
289.084406 54.0
295.136889 12.0
297.180127 12.0
300.081704 27.0
303.067301 20.0
305.094978 12.0
311.241082 12.0
317.080315 39.0
318.087634 27.0
319.093033 52.0
319.098283 97.0
329.083262 41.0
331.10157 49.0
333.111757 12.0
345.078514 74.0
346.089223 70.0
347.095932 557.0
349.11373 228.0
363.082914 80.0
363.092254 171.0
365.099792 871.0
373.253533 11.0
393.089231 12.0
407.332166 23.0
411.297981 12.0
425.045796 12.0
426.355525 11.0
435.316415 13.0
437.342233 49.0
454.342154 32.0
455.351253 57.0
477.207579 51.0
486.339368 56.0
491.225353 34.0
493.327131 30.0
497.164037 45.0
499.177794 69.0
511.170771 17.0
511.184071 43.0
517.188364 12.0
523.335278 28.0
526.182985 11.0
527.293643 48.0
540.371269 12.0
558.397549 55.0
565.224022 26.0
567.270769 24.0
567.378069 25.0
576.385569 12.0
580.383615 35.0
581.384644 100.0
582.393743 96.0
585.298099 35.0
586.395878 46.0
596.245957 22.0
597.263046 84.0
609.247533 91.0
609.368443 48.0
610.253822 249.0
611.270601 587.0
619.269862 19.0
623.391677 22.0
625.364645 46.0
625.384235 29.0
627.372573 93.0
627.389783 491.0
651.304127 12.0
653.368334 31.0
655.365522 111.0
655.385602 130.0
665.157321 11.0
665.306431 45.0
667.374909 15.0
668.390108 55.0
677.311788 36.0
679.340106 53.0
681.407303 30.0
683.372631 28.0
683.393141 30.0
685.394669 46.0
687.340037 28.0
689.349925 20.0
700.428092 58.0
701.369501 53.0
703.353019 65.0
703.373769 54.0
713.383158 83.0
715.373026 24.0
716.348065 20.0
717.339514 106.0
719.369052 77.0
727.415673 44.0
747.355661 48.0
757.43749 52.0
758.421868 43.0
759.390677 43.0
761.378895 56.0
761.400505 74.0
762.419914 49.0
765.438891 12.0
769.406416 32.0
770.428445 31.0
771.426674 299.0
772.441933 50.0
773.419652 57.0
785.414819 22.0
787.420247 223.0
788.421225 48.0
788.440445 55.0
789.439294 110.0
789.447524 144.0
799.434513 35.0
800.434702 42.0
801.441111 487.0
802.44538 788.0
803.453009 17.0
815.412226 55.0
816.430775 161.0
817.433153 1684.0
818.450182 48.0
819.448171 219.0
829.44199 38.0
830.443879 57.0
831.446328 331.0
845.424763 168.0
846.441971 100.0
847.45406 623.0
849.397228 51.0
850.391067 56.0
851.394056 238.0
851.408336 459.0
858.454598 34.0
860.444826 23.0
861.399115 23.0
861.462345 44.0
862.474734 48.0
865.400141 39.0
874.432181 23.0
875.434739 49.0
889.446504 29.0
890.472263 34.0
891.478182 139.0
892.487581 22.0
895.425317 130.0
903.501789 31.0
905.496356 27.0
907.472484 58.0
907.487254 124.0
919.463501 162.0
919.481321 106.0
920.47076 167.0
921.478569 86.0
923.481017 46.0
932.442427 26.0
933.480695 162.0
934.447674 58.0
935.463113 148.0
936.461162 66.0
948.472619 81.0
949.462428 186.0
949.480558 811.0
950.485987 2770.0
951.495016 10000.0

