>compound 
>formula C21H30O4
>parentmass 347.2217
>ionization [M + H]+
>instrumentation Unknown (LCMS)
>source file:/Users/fanzhoukong/Documents/GitHub/Libgen/data/NIST_MONA/0_unknown_/spectrum.ms
>quality UNKNOWN

>ms2peaks
53.0386 2.309849
55.0179 2.110448
55.0543 5.116467
67.0543 8.160699
69.0335 4.16114
69.0699 5.227411
79.0542 14.6092
81.0339 1.415929
81.0699 18.771755
83.0491 22.506575
87.0441 11.472109
91.0542 12.671733
93.0699 29.628916
95.0491 2.663438
95.0855 25.448198
97.0648 58.796838
99.0442 2.615475
101.0598 8.519085
105.0699 27.084993
107.0493 4.057902
107.0856 34.725884
109.0648 28.225882
109.1013 6.663626
111.0443 3.025676
117.0699 10.08826
119.0856 23.398843
121.0648 100.0
121.1012 7.860027
123.0804 46.026427
128.0615 1.753164
129.0699 7.213156
131.0855 23.359372
133.0649 4.141011
133.1011 29.364176
135.0804 22.020184
135.1168 8.952403
137.0962 4.532027
141.0698 2.081435
142.0779 1.835251
143.0855 19.528469
145.1013 33.263564
147.0805 11.144152
147.1168 23.155726
149.0962 11.703746
149.1324 2.825568
153.0911 2.716669
155.0857 9.266128
156.0937 3.508451
157.1012 25.393237
159.0805 5.311622
159.1168 18.792277
161.0959 11.384753
161.1326 5.467934
163.1117 31.098705
169.1012 14.930473
171.0809 3.063732
171.1169 23.890424
173.0963 5.638163
173.1327 11.159721
175.1116 18.31996
177.1275 4.755487
181.1008 7.262298
182.1092 2.156446
183.1169 14.868829
185.096 3.262975
185.1327 8.764482
187.1119 8.728628
187.1481 5.199184
189.1276 9.445163
193.1014 3.426206
193.1223 2.081749
195.1168 7.525544
197.1325 9.486678
199.1117 3.718308
201.1276 5.964154
203.1071 1.655351
209.1322 6.846908
211.1114 3.289236
211.148 8.89752
213.1277 4.060811
215.1432 2.053836
219.1173 2.064137
223.1482 10.552006
225.1279 2.162657
225.1639 4.359754
227.1433 3.562782
229.1589 6.835035
233.1328 2.127432
235.1484 5.082893
237.1267 2.393744
237.164 2.869049
239.1436 3.984149
241.159 6.678644
243.1752 2.64441
247.1469 1.814651
249.1647 2.603916
251.1799 5.365246
253.1589 4.989169
265.1591 3.99154
265.1948 3.262975
267.1741 5.337254
269.1901 6.132103
271.1693 3.088657
281.1895 1.954294
293.1905 4.720498
311.201 3.940982
329.211 5.393237

