>compound 
>formula C14H10O5
>parentmass 259.06010442015
>ionization [M + H]+
>instrumentation Unknown (LCMS)
>source file:/Users/fanzhoukong/Documents/GitHub/Libgen/data/EAD_PFP/0_unknown_/spectrum.ms
>quality UNKNOWN

>ms2peaks
117.078565 20.0
126.042752 49.0
126.053752 109.0
127.055502 593.0
128.062333 1549.0
129.055324 126.0
129.073124 223.0
130.040974 24.0
131.049435 546.0
132.058446 97.0
133.030606 18.0
133.057726 82.0
133.067906 95.0
134.035827 28.0
135.082418 267.0
137.021469 65.0
137.036379 43.0
138.05201 33.0
139.05636 406.0
141.072482 59.0
142.078392 37.0
143.072653 30.0
144.059794 28.0
145.066844 25.0
147.047516 49.0
151.040728 960.0
153.02164 208.0
154.07288 22.0
155.054491 219.0
156.061262 155.0
157.067612 1065.0
159.041824 85.0
160.055244 779.0
161.064415 2562.0
162.028126 176.0
162.039346 237.0
163.037236 117.0
163.054736 245.0
163.068506 183.0
163.078516 144.0
165.020808 42.0
165.071148 122.0
166.030338 43.0
166.056848 36.0
166.073268 32.0
167.050559 412.0
168.05738 324.0
169.05831 54.0
169.07105 52.0
169.10037 27.0
170.039231 235.0
171.047332 702.0
172.055832 67.0
173.056993 345.0
173.063433 837.0
174.030024 72.0
174.042964 133.0
174.058474 105.0
174.067514 230.0
175.057644 375.0
175.074504 564.0
176.049305 712.0
177.061986 31.0
178.074966 82.0
179.031867 44.0
180.074118 29.0
181.056108 29.0
182.038139 35.0
183.04535 1568.0
184.05269 2765.0
185.062791 8778.0
186.036922 39.0
186.070322 44.0
187.040382 3807.0
188.047893 1083.0
188.417503 28.0
189.058114 1196.0
190.065634 2434.0
190.460195 52.0
191.073115 13515.0
192.066986 24.0
193.051176 28.0
193.101546 40.0
195.047608 297.0
196.053118 276.0
197.059829 115.0
198.01672 65.0
198.03465 212.0
198.04845 42.0
199.03815 291.0
200.033081 95.0
200.049701 411.0
201.059662 3050.0
201.817412 48.0
202.042922 188.0
202.065223 472.0
203.043943 30.0
203.071853 1648.0
204.082434 37.0
205.109515 34.0
206.084335 23.0
206.821886 45.0
207.030466 45.0
208.125697 19.0
209.106237 31.0
209.942868 41.0
211.040059 508.0
212.050269 6623.0
212.65411 78.0
213.05857 16885.0
214.065001 448.0
215.034981 751.0
215.042171 911.0
215.318061 38.0
216.041732 7719.0
217.053713 17514.0
218.202603 29.0
219.034014 138.0
220.095125 22.0
220.396055 24.0
221.045145 36.0
223.043547 92.0
224.049777 38.0
225.040638 14.0
225.050918 26.0
225.074438 25.0
227.036299 116.0
228.04854 1071.0
228.2986 62.0
229.055611 19548.0
230.061921 17501.0
231.070442 8566.0
231.903613 37.0
232.042363 26.0
232.984933 41.0
235.055975 65.0
235.063505 303.0
239.031687 45.0
239.036237 103.0
239.060467 57.0
240.050568 842.0
240.544098 38.0
241.057909 8482.0
242.047549 106.0
242.058209 238.0
243.01784 28.0
243.03157 216.0
243.06517 59.0
244.043611 19511.0
245.017901 30.0
245.040891 82.0
245.217271 12.0
245.476592 35.0
246.478322 23.0
247.064643 30.0
247.569953 36.0
247.799673 46.0
248.236273 57.0
248.450854 36.0
248.971504 27.0
251.203865 26.0
256.032269 18.0
256.182779 29.0
257.041149 1413.0
257.052159 7074.0
258.05991 14218.0
258.67399 136.0
258.759101 89.0
259.064891 35772.0

