>compound 
>formula C4H9NO2
>parentmass 104.0709
>ionization [M + H]+
>instrumentation Unknown (LCMS)
>source file:/Users/fanzhoukong/Documents/GitHub/Libgen/data/NIST_MONA/0_unknown_/spectrum.ms
>quality UNKNOWN

>ms2peaks
35.34312 2.12766
35.36863 1.329787
35.59216 1.329787
35.88667 1.196809
35.921 0.797872
36.1375 1.196809
36.19274 0.664894
36.28656 0.797872
36.44707 1.329787
36.71208 0.664894
37.12222 1.728723
37.20602 1.861702
37.23634 1.462766
37.50307 1.462766
37.75665 0.930851
37.97519 0.664894
38.11615 1.06383
38.13244 1.196809
38.16605 1.728723
38.19345 0.930851
38.26554 1.06383
38.53422 1.728723
38.58033 0.930851
38.68509 1.329787
39.25665 0.797872
39.35466 1.06383
40.00492 0.930851
40.26622 1.196809
40.48948 0.664894
40.75685 1.861702
40.78588 1.196809
41.03789 50.132979
41.08793 4.12234
41.10551 1.462766
41.1523 2.792553
41.28063 1.994681
41.36226 1.728723
41.56514 0.797872
41.62794 1.196809
41.65311 1.595745
41.93154 0.664894
41.94455 1.595745
41.96681 1.06383
42.03152 2.659574
42.06149 2.659574
42.16927 0.664894
42.37601 1.196809
42.47424 1.329787
42.79157 1.329787
42.95931 0.797872
43.01767 5.452128
43.04131 26.06383
43.09998 1.994681
43.14251 1.196809
43.17479 1.06383
43.19493 0.930851
43.3565 0.930851
43.40373 4.388298
43.42429 1.06383
43.45111 1.861702
43.53341 0.797872
43.89781 0.930851
44.14801 1.329787
44.26416 1.462766
44.57981 1.196809
44.64294 1.06383
44.89013 1.329787
45.03104 11.835106
45.06675 4.12234
45.10176 2.792553
45.19004 0.664894
45.23154 1.595745
45.30559 0.664894
45.57545 1.728723
45.73462 1.861702
45.82764 0.797872
45.96735 1.196809
46.30999 0.930851
46.49999 0.930851
46.54353 1.06383
46.96153 2.12766
47.15549 0.797872
47.19692 1.196809
47.30479 1.595745
47.51032 0.664894
47.58521 1.196809
47.60115 1.196809
48.10375 1.329787
48.34707 1.329787
48.79531 1.196809
48.83052 1.462766
49.22758 0.930851
49.27155 1.595745
49.54937 0.664894
50.05122 1.994681
50.09235 1.06383
50.41562 1.06383
50.73224 1.861702
51.08953 0.797872
51.17907 1.595745
51.3169 2.792553
51.48322 0.930851
51.57736 1.06383
51.73012 1.329787
51.78164 0.930851
51.8538 1.595745
52.51602 1.196809
52.71568 1.462766
52.78942 0.797872
52.85615 1.329787
52.87773 1.06383
53.14157 1.196809
53.37871 1.06383
53.4753 0.930851
53.89936 1.06383
53.96146 1.196809
54.00446 1.462766
54.02177 1.06383
54.48086 0.930851
54.53626 1.06383
54.684 1.06383
54.83661 0.664894
54.87547 1.462766
55.09167 0.930851
55.25375 1.861702
55.28718 1.329787
56.1595 1.329787
56.32274 1.462766
56.56159 0.930851
56.71774 0.797872
56.8151 1.994681
56.87389 1.196809
56.90245 1.329787
57.05598 0.664894
57.25517 1.861702
57.45002 1.462766
57.82367 1.329787
57.88106 0.664894
57.98131 0.664894
58.06565 100.0
58.12838 5.053191
58.16951 1.994681
58.1943 2.526596
58.21835 2.260638
58.24429 1.595745
58.3184 1.994681
58.36798 1.329787
58.38366 3.191489
58.41394 0.930851
58.5186 2.260638
58.55399 1.196809
58.69009 0.930851
58.76252 1.06383
58.82275 0.797872
58.86917 0.797872
58.9985 0.797872
59.39182 4.521277
59.42047 2.792553
59.61088 0.664894
59.80088 0.930851
59.8506 1.861702
59.87713 1.196809
59.89204 1.595745
60.17831 0.797872
60.39215 2.393617
60.46083 1.462766
60.48533 1.728723
60.57 1.595745
60.69267 1.06383
60.90038 1.595745
60.92718 1.196809
61.0895 4.12234
61.11736 1.595745
61.17927 1.462766
61.50085 1.329787
61.65369 1.06383
61.77417 1.595745
62.06668 1.329787
62.08803 1.994681
62.12236 1.06383
62.18542 0.797872
62.25258 1.994681
62.44894 1.861702
62.65939 1.462766
62.73888 1.728723
63.06501 0.797872
63.21978 0.664894
63.42162 1.196809
63.44845 1.462766
63.58239 1.462766
63.90482 1.462766
64.50633 1.728723
64.58344 0.930851
65.07875 1.595745
65.24576 1.329787
65.47126 1.196809
65.53616 0.797872
65.5733 1.329787
65.72179 1.06383
65.89423 1.595745
65.96829 0.797872
66.1078 0.664894
66.42422 3.191489
66.76212 1.196809
66.79343 0.664894
67.24981 1.861702
67.29934 0.797872
67.43951 1.196809
67.51674 1.994681
67.60662 0.930851
67.65871 0.930851
67.7891 1.06383
68.54241 0.930851
68.75476 0.930851
68.94279 1.329787
69.05884 1.196809
69.14619 0.797872
69.32239 1.861702
69.44167 1.329787
69.47984 1.329787
69.59929 0.664894
69.81477 1.329787
69.84801 0.797872
70.04923 0.797872
70.53912 1.06383
70.59445 1.196809
70.68705 1.595745
70.71724 1.196809
70.73569 1.329787
70.85653 1.06383
70.96358 1.06383
71.51991 0.664894
71.56033 0.930851
71.71062 0.930851
71.9879 2.260638
72.23154 1.329787
72.31096 0.664894
72.61324 1.728723
72.68898 0.664894
73.06374 2.393617
73.20021 1.861702
73.2566 0.797872
73.38168 1.462766
73.40962 1.329787
74.03086 0.664894
74.33179 0.797872
74.6111 0.930851
74.68246 1.462766
74.9009 1.06383
75.13403 0.930851
75.35763 0.797872
75.51933 1.595745
75.69547 1.196809
75.95692 1.196809
75.98549 0.930851
76.13007 0.930851
76.43587 0.930851
76.58337 1.06383
76.73637 1.994681
77.00922 1.329787
77.31831 1.728723
78.0295 1.861702
78.06594 0.664894
78.22885 1.06383
78.29219 1.06383
78.31247 1.06383
78.5966 1.196809
78.70983 0.797872
78.81203 1.06383
78.88889 0.797872
79.29286 4.12234
79.35341 2.12766
79.93536 0.930851
80.0454 10.904255
80.06836 7.31383
80.09276 3.191489
80.15125 1.728723
80.33532 1.329787
80.36099 1.06383
80.39181 0.797872
80.48436 1.06383
80.53202 1.06383
80.5924 1.595745
80.65368 1.329787
80.71056 1.329787
81.46207 1.329787
82.20983 1.728723
82.23041 1.728723
82.32419 1.595745
82.68706 0.930851
82.81087 1.462766
83.34081 1.462766
83.54506 1.595745
83.95351 1.728723
84.04307 0.664894
84.51037 1.196809
84.62695 0.664894
84.92759 1.329787
85.07019 0.930851
85.11884 0.797872
85.33985 1.329787
85.54121 0.797872
85.6366 1.196809
85.73734 0.797872
85.84862 0.930851
86.57554 1.329787
87.06824 1.462766
87.0884 2.792553
87.19668 1.06383
87.25206 1.728723
87.36794 1.06383
87.40018 1.861702
87.53935 1.329787
87.61172 1.06383
88.30745 1.728723
88.33969 1.728723
88.44469 1.329787
88.65698 1.196809
88.84061 1.06383
88.88363 1.196809
89.01927 1.196809
89.22493 1.728723
89.26822 1.462766
89.47419 2.393617
89.65234 1.06383
90.2952 0.797872
90.50121 0.797872
90.63866 1.06383
90.73581 2.659574
91.10286 0.930851
91.59985 0.797872
91.80265 1.595745
91.90147 1.196809
91.95545 0.664894
92.06493 1.06383
92.245 0.797872
92.28646 1.196809
92.5211 0.664894
92.693 0.664894
93.2518 0.797872
93.37219 1.728723
93.39407 1.06383
93.47874 0.797872
93.69427 1.06383
94.2286 1.728723
94.59653 1.861702
94.6287 1.196809
94.96334 1.462766
95.52231 1.06383
96.53313 0.930851
96.57047 1.329787
96.91965 1.462766
97.48151 2.12766
97.62892 1.462766
97.72397 0.930851
97.75795 0.930851
97.77612 0.797872
98.89472 1.196809
99.11053 1.595745
99.81039 1.329787
99.99132 1.06383
100.134 0.930851
100.47248 0.930851
100.54745 1.329787
100.56954 1.06383
100.81152 1.06383
101.05888 1.462766
101.09354 1.595745
102.04031 0.797872
102.14967 1.06383
102.20808 2.925532
102.31969 1.06383
102.74017 0.930851
102.9232 1.994681
103.05695 0.930851
103.14011 0.797872
103.26852 1.994681
103.45131 0.664894
103.47475 0.797872
103.52866 1.196809
103.7953 0.664894
104.19838 1.06383
104.56416 1.196809

