>compound 
>formula C12H20O4
>parentmass 251.12538012288
>ionization [M + Na]+
>instrumentation Unknown (LCMS)
>source file:/Users/fanzhoukong/Documents/GitHub/Libgen/data/EAD_PFP/0_unknown_/spectrum.ms
>quality UNKNOWN

>ms2peaks
50.013293 144.0
51.020786 228.0
52.029848 50.0
53.037371 121.0
55.052326 77.0
55.053776 219.0
56.049688 17.0
57.033801 59.0
57.069321 50.0
59.049556 626.0
60.985511 25.0
62.014173 33.0
63.021886 188.0
64.027528 35.0
65.038751 662.0
66.042783 57.0
67.051296 116.0
67.054496 336.0
68.99356 184.0
69.070071 56.0
74.017733 18.0
75.016425 57.0
76.030358 87.0
77.0382 728.0
78.045753 82.0
79.053755 474.0
80.051578 101.0
81.06888 170.0
83.085245 19.0
85.06584 51.0
86.013542 15.0
89.03599 90.0
90.045462 46.0
91.056895 1397.0
92.057047 135.0
93.06739 199.0
94.064242 53.0
95.080735 82.0
95.953897 16.0
97.06447 37.0
98.986795 75.0
102.043132 41.0
103.055005 76.0
104.053877 20.0
105.06861 452.0
106.067082 76.0
107.088515 39.0
109.071379 55.0
109.10412 85.0
111.001204 26.0
112.008747 15.0
113.003139 33.0
115.050284 10.0
115.054494 497.0
116.058057 76.0
117.067049 195.0
118.064432 51.0
119.081014 143.0
120.076197 34.0
120.082637 34.0
121.027009 92.0
121.065809 50.0
121.101379 99.0
123.071354 48.0
123.113744 43.0
125.035319 15.0
126.044021 46.0
127.056774 224.0
128.060276 419.0
129.067739 277.0
130.057921 45.0
130.067961 111.0
131.083264 451.0
132.081136 25.0
133.065819 66.0
133.101979 87.0
135.079184 56.0
136.114966 13.0
137.095059 38.0
139.053074 56.0
141.068029 155.0
142.075081 47.0
143.084574 59.0
144.087056 59.0
145.100099 223.0
147.098823 41.0
147.122584 35.0
147.969816 21.0
149.025098 60.0
149.062178 38.0
150.046941 22.0
151.061423 70.0
151.074663 39.0
152.061206 218.0
153.072758 104.0
154.065801 77.0
155.069383 69.0
156.082306 60.0
157.100998 190.0
158.103311 69.0
159.118673 3114.0
160.123656 162.0
161.090768 60.0
161.103188 114.0
161.126828 60.0
163.055013 34.0
163.082523 85.0
163.116303 49.0
164.042205 33.0
165.068888 159.0
165.129308 64.0
166.07479 59.0
167.066003 16.0
167.074873 76.0
168.072885 77.0
168.086865 44.0
169.099348 55.0
170.08676 86.0
170.09955 27.0
171.102693 39.0
172.111365 42.0
173.122998 51.0
175.085163 30.0
175.118853 34.0
176.062575 22.0
176.079475 31.0
177.088358 145.0
177.122248 87.0
178.07658 68.0
179.071462 37.0
179.081963 45.0
180.071775 27.0
180.091485 21.0
182.09528 31.0
183.103982 46.0
184.123455 14.0
185.133757 33.0
186.11072 14.0
187.149232 986.0
188.054915 28.0
189.069207 76.0
189.125787 32.0
190.07944 28.0
191.099172 61.0
192.980717 61.0
193.101847 49.0
194.07369 18.0
195.094452 32.0
196.094595 21.0
197.131677 31.0
201.068347 29.0
202.065559 45.0
203.095942 34.0
204.091164 13.0
205.123897 175.0
205.137927 212.0
206.093129 18.0
207.032212 84.0
207.080162 60.0
208.079424 22.0
209.129267 29.0
211.985034 19.0
215.138802 97.0
217.091606 15.0
219.105441 32.0
221.086326 29.0
221.106726 24.0
222.105659 24.0
223.168321 37.0
226.084169 17.0
231.088721 19.0
233.152856 544.0
242.98467 37.0
248.987415 15.0
251.123591 1028.0

