>compound 
>formula C21H24O10
>parentmass 437.14422796922
>ionization [M + H]+
>instrumentation Unknown (LCMS)
>source file:/Users/fanzhoukong/Documents/GitHub/Libgen/data/EAD_PFP/0_unknown_/spectrum.ms
>quality UNKNOWN

>ms2peaks
50.015403 421.0
51.02361 1656.0
52.032677 127.0
53.014545 320.0
53.038795 197.0
55.017419 1159.0
55.933097 57.0
57.035974 307.0
61.028263 180.0
62.016381 60.0
63.021758 226.0
64.032095 77.0
65.040982 1244.0
66.04422 157.0
67.054337 472.0
68.026054 22.0
69.030802 210.0
69.035692 517.0
71.014516 40.0
73.031351 89.0
74.014958 36.0
75.023816 235.0
76.029243 88.0
77.04481 2276.0
78.047207 481.0
79.056075 2903.0
80.056532 43.0
81.032399 604.0
83.012594 137.0
83.017954 60.0
85.028439 1428.0
87.043793 71.0
88.024471 28.0
89.040218 905.0
90.049705 172.0
91.055543 2404.0
93.032937 146.0
93.038597 317.0
94.052394 105.0
95.027752 265.0
95.052582 256.0
97.026356 228.0
99.047711 24.0
101.038696 41.0
102.050523 131.0
103.04253 1445.0
104.062318 32.0
105.036925 775.0
106.043312 75.0
106.69699 62.0
107.0555 6036.0
109.028844 106.0
109.239654 33.0
111.042909 28.0
115.056988 368.0
116.059505 39.0
117.037753 315.0
118.04779 151.0
119.049327 1691.0
120.058315 97.0
121.027382 166.0
121.037082 226.0
122.030629 67.0
122.036039 196.0
123.039117 262.0
123.047807 1445.0
126.045459 41.0
127.035026 33.0
127.053796 173.0
128.063943 302.0
129.03356 26.0
129.06361 60.0
129.0714 146.0
130.041478 24.0
130.060458 66.0
131.052185 2604.0
132.017272 22.0
132.044292 53.0
133.02997 903.0
134.038597 558.0
135.045324 2876.0
136.015842 31.0
136.055842 42.0
137.024249 1060.0
137.038009 170.0
138.130756 28.0
139.039484 32.0
139.054514 62.0
141.072948 214.0
142.066015 31.0
143.049683 91.0
144.05908 40.0
144.07085 38.0
145.029558 220.0
145.063767 76.0
146.042355 561.0
147.049152 2300.0
149.027727 2175.0
150.032754 96.0
151.039971 279.0
152.061429 89.0
152.067449 142.0
153.060876 454.0
154.078173 32.0
155.061031 61.0
156.095978 27.0
157.061895 65.0
157.079095 62.0
159.04471 1188.0
160.049467 61.0
160.054427 74.0
161.026295 2513.0
162.033532 287.0
163.041409 4866.0
164.039866 53.0
164.049906 103.0
165.036324 507.0
165.043874 1250.0
165.066514 281.0
166.073671 53.0
166.078721 99.0
167.029428 26.0
167.076288 31.0
167.082628 234.0
168.048896 68.0
168.069226 57.0
169.066373 150.0
169.076563 125.0
170.03708 28.0
170.07924 48.0
171.042608 187.0
171.045168 693.0
172.051105 63.0
173.034192 605.0
173.056092 237.0
174.03302 394.0
175.045087 3696.0
176.052284 1347.0
176.490593 21.0
177.057161 5004.0
178.025679 53.0
178.060969 171.0
179.040096 4449.0
180.020594 40.0
180.040303 41.0
181.065731 467.0
182.074208 245.0
183.057665 84.0
183.084165 128.0
184.050413 83.0
185.06449 237.0
186.033277 133.0
187.040745 2207.0
188.052282 196.0
189.047679 152.0
189.059819 1440.0
190.029527 42.0
190.064637 73.0
191.032844 556.0
191.053154 219.0
192.044261 368.0
193.052879 1741.0
194.075056 213.0
195.080793 497.0
196.08638 56.0
197.068418 106.0
197.086278 258.0
197.094558 328.0
197.115178 89.0
199.037102 347.0
200.04588 323.0
201.057217 1252.0
202.018204 59.0
202.030724 337.0
202.041864 78.0
203.040082 3986.0
204.042169 527.0
205.049506 717.0
206.069184 65.0
207.044871 40.0
207.081521 1844.0
208.027098 24.0
208.053938 28.0
208.101988 26.0
209.052726 157.0
209.085285 79.0
210.056733 313.0
211.066 658.0
212.081957 34.0
213.056025 357.0
213.083185 102.0
214.053832 30.0
215.032419 782.0
216.040577 181.0
217.055434 3886.0
218.049531 39.0
218.059661 166.0
219.069099 931.0
220.038716 30.0
220.079396 27.0
221.046893 138.0
221.096413 58.0
222.060291 22.0
222.069051 54.0
223.076008 752.0
224.080835 84.0
225.090872 1345.0
226.05163 26.0
226.06489 82.0
227.039527 278.0
227.051337 244.0
228.065084 88.0
229.051422 1110.0
229.087002 94.0
230.057719 20.0
230.071099 75.0
231.040916 69.0
231.058786 149.0
231.066236 415.0
232.073964 34.0
233.050981 1177.0
234.063038 310.0
235.074246 2063.0
236.071113 283.0
237.0731 503.0
238.068118 62.0
239.074325 531.0
239.084945 296.0
241.07486 234.0
241.08855 4415.0
243.066914 244.0
244.039252 26.0
245.047239 1873.0
246.049636 134.0
246.072696 55.0
247.064843 2346.0
248.086791 58.0
249.056728 42.0
249.092288 387.0
250.064185 39.0
250.073475 56.0
251.075223 1155.0
252.08208 125.0
253.087837 6679.0
255.070932 262.0
255.103792 26.0
256.074789 121.0
257.090047 656.0
258.053814 119.0
259.063491 1801.0
261.071416 29.0
261.084086 68.0
261.093576 52.0
262.066383 23.0
263.0553 297.0
263.06641 3550.0
264.068358 122.0
265.084985 1248.0
266.058802 29.0
267.10164 1157.0
268.074327 53.0
269.082534 2700.0
270.078132 33.0
270.094252 96.0
271.098189 3906.0
271.099799 7503.0
273.087374 40.0
275.087068 328.0
275.116298 67.0
276.066036 55.0
276.075806 62.0
277.077723 1495.0
279.070697 652.0
280.053455 50.0
280.076405 71.0
281.087202 10228.0
282.094889 26.0
283.094487 130.0
284.085944 34.0
285.077521 114.0
287.097286 1086.0
288.082453 20.0
289.075921 56.0
289.087581 101.0
291.108135 561.0
292.080063 63.0
293.08543 1077.0
294.072397 27.0
294.094217 65.0
295.101384 6783.0
297.078639 151.0
298.079066 44.0
298.109526 36.0
299.093014 6790.0
301.085318 124.0
303.091013 24.0
305.079418 1595.0
307.100102 1520.0
308.06909 26.0
309.094697 451.0
309.113647 435.0
310.087524 37.0
311.095761 1093.0
312.084889 24.0
313.099846 39.0
316.044838 33.0
317.109805 4471.0
319.08762 234.0
319.1016 1211.0
321.078575 117.0
322.085172 44.0
323.095119 4551.0
325.110914 1111.0
327.088668 33.0
329.086643 79.0
330.10568 32.0
333.075802 16.0
335.093737 2067.0
337.114182 1739.0
339.088386 47.0
340.093914 20.0
341.104531 2631.0
347.095725 1497.0
351.091314 28.0
352.094241 35.0
353.107789 2793.0
355.122673 1091.0
364.096989 16.0
365.107086 2089.0
371.10829 470.0
371.11775 597.0
373.124615 109.0
383.113688 1062.0
401.12194 454.0
419.132541 178.0
437.161673 69.0
437.214953 71.0
437.251823 38.0

