>compound 
>formula C18H20O6
>parentmass 331.11871189525
>ionization [M - H]-
>instrumentation Unknown (LCMS)
>source file:/Users/fanzhoukong/Documents/Fiehnlab/library_generator/data/UVPD/0_unknown_/spectrum.ms
>quality UNKNOWN

>ms2peaks
65.038134 11231.0
67.017638 12036.0
77.038278 40970.0
81.033266 19836.0
93.033109 166297.0
95.012093 102745.0
95.048893 77736.0
97.028197 7619.0
105.033613 266625.0
108.019659 19636.0
109.028261 565900.0
115.054302 8018.0
117.033766 10460.0
120.020322 8863.0
121.027474 1003956.0
122.035766 9801.0
123.006908 229664.0
123.043538 17341.0
124.01487 663915.0
125.023272 278500.0
132.020036 143896.0
133.027308 114894.0
135.043081 51866.0
136.015353 1269598.0
137.022295 715260.0
138.030017 39308.0
139.038329 109755.0
143.048087 16340.0
145.028281 49162.0
145.063911 12993.0
147.042235 9856.0
148.015657 702072.0
149.022199 2323466.0
150.031171 607571.0
151.038473 782620.0
152.045875 85615.0
155.048461 13049.0
156.056533 12834.0
157.066025 13730.0
158.036286 11367.0
159.043548 42410.0
160.01482 247287.0
161.023552 3068928.0
162.030754 189266.0
163.038526 212467.0
164.046658 108618.0
165.0551 111541.0
167.049064 22240.0
169.065228 10369.0
170.03701 15160.0
171.043622 31788.0
172.051924 7159.0
173.059376 27482.0
174.031348 9703.0
175.03887 13491.0
177.055064 11782.0
182.036803 8446.0
183.042955 52241.0
184.052097 62047.0
185.058799 42112.0
187.039453 92197.0
188.045885 51287.0
189.054857 8795.0
195.042859 35481.0
196.052761 18612.0
197.023013 16374.0
197.058643 18131.0
198.030385 14178.0
199.039477 39738.0
200.047199 15260.0
201.053401 211906.0
202.061063 161561.0
211.03927 85036.0
212.046752 111271.0
213.054794 94915.0
214.026326 16905.0
214.063296 25228.0
215.034948 92307.0
216.04054 10757.0
223.037944 22517.0
224.046226 15903.0
225.054118 17880.0
226.02504 8651.0
227.035312 31308.0
228.041243 9701.0
229.012975 11286.0
229.050185 104253.0
230.058357 86761.0
239.034005 42962.0
240.040977 226017.0
241.050299 141754.0
242.057931 30761.0
243.027133 85960.0
251.033218 23561.0
253.047932 8684.0
255.030156 12164.0
255.065136 15236.0
256.034418 12585.0
257.04461 156205.0
258.051852 55405.0
267.02901 15695.0
268.034352 226648.0
269.045374 221809.0
270.052606 157699.0
271.022398 102625.0
271.060728 22937.0
273.074582 7013.0
283.058581 102528.0
285.037315 74800.0
285.073475 99151.0
286.047447 2460980.0
300.062034 11742.0
301.069026 1015309.0
315.084334 13087.0
316.095506 137536.0

