>compound 
>formula C17H20N4O6
>parentmass 377.146146501814
>ionization [M + H]+
>instrumentation Unknown (LCMS)
>source file:/Users/fanzhoukong/Documents/GitHub/Libgen/data/NIST_MONA/0_unknown_/spectrum.ms
>quality UNKNOWN

>ms2peaks
29.0009 0.79
29.0375 1.35
31.017 1.01
39.0223 0.74
41.0379 11.71
41.0651 0.41
41.0759 0.29
43.0176 34.39
43.0539 9.94
43.0988 0.19
43.1727 0.14
43.1855 0.11
43.2113 0.15
43.2539 0.14
43.444 0.11
45.0128 0.11
45.0332 23.22
45.0619 0.73
45.0793 0.14
46.0366 0.16
51.0228 0.34
52.0182 0.12
53.0383 6.85
53.2775 0.1
55.0178 3.54
56.0477 0.18
57.0334 33.34
57.0762 0.52
57.2626 0.11
57.9354 0.1
59.0495 1.77
61.0286 16.44
61.0619 0.56
61.0734 0.33
61.1098 0.13
61.5209 0.1
61.5315 0.11
63.0225 0.13
67.0293 0.12
67.0537 0.11
69.0337 27.98
69.0695 0.83
69.0805 0.53
69.2167 0.14
69.238 0.15
69.3402 0.13
69.3809 0.13
69.632 0.13
69.8041 0.14
69.9906 0.17
70.0345 0.17
71.0133 5.49
71.0493 5.47
71.4639 0.18
73.0284 4.43
73.0638 0.37
75.0442 2.8
76.0489 0.16
77.0387 3.57
81.034 4.63
87.0436 0.75
88.0443 0.19
89.039 0.65
91.0547 2.77
92.0495 0.53
93.0522 0.17
96.0456 0.13
97.0294 0.25
98.9744 0.15
99.0439 2.02
102.0339 0.24
102.0478 0.29
102.1446 0.11
102.8694 0.24
103.0548 7.59
103.0952 0.2
103.1146 0.15
104.0524 0.97
105.0709 0.42
116.0487 2.39
117.0565 1.34
118.0658 9.44
118.1102 0.23
118.1288 0.11
119.0664 0.4
120.0811 0.2
122.0918 0.15
128.0504 1.34
129.0395 0.2
129.0592 0.38
130.065 10.12
130.1128 0.24
130.1289 0.18
131.0729 1.05
132.0787 0.76
141.0423 0.25
142.0552 0.34
143.0623 1.28
144.0558 0.11
144.0797 0.18
145.0768 23.93
145.1446 0.36
145.1938 0.11
145.279 0.13
145.3044 0.12
145.3333 0.13
145.3513 0.12
145.4101 0.2
145.4414 0.12
145.4796 0.11
145.7217 0.11
146.084 0.72
147.0643 0.11
147.0896 1.1
147.9561 0.2
153.0462 0.1
154.9994 0.16
155.0627 1.21
156.063 0.53
157.0694 4.7
158.0808 1.08
159.0913 1.49
161.0659 0.17
162.8821 0.15
163.0855 0.22
167.0583 0.12
169.0746 0.72
170.0719 19.25
170.144 0.21
170.1754 0.15
171.0765 0.69
171.0875 0.52
171.7623 0.12
172.0297 0.2
172.0876 100.0
172.4644 0.19
172.5251 0.15
172.5507 0.16
172.5924 0.21
172.6715 0.12
172.7311 0.15
172.9176 0.12
172.9778 0.11
173.0444 0.12
173.0673 0.85
173.0956 1.23
173.1977 0.11
173.3157 0.1
175.081 0.23
182.0711 1.98
183.0898 0.88
184.0542 0.2
184.0914 0.88
185.0913 0.54
185.1035 0.41
185.8329 0.13
186.1015 1.66
189.1039 0.21
190.0947 0.11
194.0705 0.21
196.0908 0.49
197.0277 0.1
197.0915 2.91
197.3087 0.11
197.7692 0.16
197.8662 0.15
198.0354 0.24
198.0671 74.73
198.379 0.14
198.4309 0.11
198.5497 0.22
198.6404 0.12
198.6642 0.18
198.7901 0.14
198.8912 0.15
199.0673 1.32
199.098 1.06
199.1987 0.14
199.2113 0.11
199.327 0.11
199.447 0.13
199.7964 0.12
199.8974 0.16
200.0816 6.96
200.3834 0.16
208.0885 0.2
209.0204 0.19
209.0862 0.17
209.0991 0.16
210.0243 0.17
210.0942 0.39
210.1091 0.4
212.0811 0.23
212.1134 0.12
213.0913 0.52
214.0962 0.73
214.1248 0.17
216.0771 0.53
224.1076 0.23
224.1235 0.37
225.0797 1.03
225.1224 0.26
226.0647 1.26
226.0978 0.51
227.0619 0.14
232.1243 0.1
242.0949 0.21
242.8658 0.15
243.0875 21.56
243.1929 0.2
243.2263 0.12
243.3899 0.19
243.4422 0.12
243.5321 0.21
243.6042 0.18
243.7966 0.11
244.092 0.3
244.8943 0.11
245.0629 0.17
245.0842 0.28
245.1087 0.12
252.1179 0.27
258.8994 0.11
286.0962 0.13
323.1135 0.26

