>compound 
>formula C10H12O4
>parentmass 219.06277986504
>ionization [M + Na]+
>instrumentation Unknown (LCMS)
>source file:/Users/fanzhoukong/Documents/GitHub/Libgen/data/EAD_PFP/0_unknown_/spectrum.ms
>quality UNKNOWN

>ms2peaks
50.013768 75.0
51.022669 282.0
52.028921 13.0
53.037152 55.0
54.034894 11.0
55.054285 264.0
55.935847 10.0
56.962578 9.0
56.964798 191.0
57.069098 129.0
59.047081 8.0
60.982994 30.0
61.008244 28.0
62.014726 34.0
63.021657 231.0
64.028089 24.0
65.03774 728.0
66.043352 49.0
67.052673 191.0
68.024394 14.0
68.053485 6.0
68.993336 109.0
71.050009 30.0
72.935952 25.0
73.060662 6.0
74.014983 14.0
75.016205 27.0
75.021295 20.0
76.030136 61.0
77.038838 584.0
78.042069 68.0
79.053531 357.0
80.048722 62.0
81.068654 110.0
82.071965 9.0
83.046637 18.0
83.085917 35.0
83.909458 5.0
84.045008 10.0
84.99606 21.0
87.022013 9.0
88.020034 6.0
88.028304 14.0
89.040386 115.0
90.043387 30.0
91.052929 856.0
92.05494 132.0
93.065272 52.0
94.064973 23.0
95.048034 6.0
95.083374 59.0
95.950796 15.0
96.077496 5.0
97.012137 8.0
98.012389 13.0
99.07821 5.0
99.992022 7.0
101.097093 13.0
102.047855 56.0
103.053786 114.0
104.048648 10.0
104.056648 24.0
105.069389 234.0
106.064831 19.0
107.073082 20.0
107.084232 29.0
108.059624 7.0
109.063995 10.0
110.999948 26.0
112.00645 7.0
113.000831 19.0
114.043543 5.0
115.054264 517.0
116.050445 15.0
116.059946 91.0
117.057277 11.0
117.069997 204.0
118.042918 7.0
118.064208 36.0
119.084 158.0
120.082411 23.0
121.066663 32.0
121.096843 25.0
122.983116 11.0
123.081996 19.0
123.115686 12.0
125.001129 6.0
126.04269 13.0
126.04709 26.0
126.903102 7.0
127.054342 158.0
128.060053 251.0
129.034115 9.0
129.060825 25.0
129.068615 79.0
130.064376 56.0
130.989968 7.0
131.031448 28.0
131.049378 167.0
132.018989 15.0
132.070759 7.0
132.079759 9.0
133.064461 36.0
133.099491 10.0
134.956013 36.0
135.042524 12.0
136.918236 41.0
136.921686 288.0
139.003169 6.0
139.054 14.0
140.051541 15.0
140.997992 44.0
141.067802 9.0
142.074864 14.0
143.073795 6.0
144.053887 8.0
144.082097 8.0
145.069188 72.0
145.9673 9.0
147.043941 21.0
147.058191 6.0
147.118781 6.0
148.054193 51.0
149.060744 6.0
149.965116 11.0
150.046696 20.0
151.055167 48.0
151.108137 7.0
152.060959 119.0
153.06769 39.0
154.066792 33.0
154.931333 17.0
155.064243 47.0
155.071573 20.0
155.081333 13.0
156.072295 14.0
156.084525 16.0
157.071296 29.0
157.081126 9.0
158.036558 22.0
158.058728 16.0
158.079668 5.0
158.090738 11.0
159.043079 108.0
159.077669 17.0
160.049061 15.0
161.054472 17.0
161.064422 38.0
161.095502 18.0
162.091744 78.0
162.995975 15.0
163.067285 14.0
164.059526 14.0
165.069908 124.0
166.070759 27.0
167.072111 22.0
168.075192 24.0
169.063464 25.0
170.068645 6.0
170.096755 14.0
171.046087 8.0
171.087087 10.0
172.053298 10.0
172.112418 14.0
173.05059 34.0
173.05832 110.0
174.068851 58.0
175.039563 158.0
176.046744 178.0
177.054206 24.0
177.127226 9.0
178.077637 45.0
179.081729 17.0
180.07417 5.0
180.08205 29.0
180.987622 7.0
181.075942 13.0
182.079183 8.0
182.938084 5.0
183.094475 9.0
184.084666 6.0
186.031659 27.0
186.065059 9.0
187.03912 50.0
188.060052 5.0
189.054153 55.0
190.064365 24.0
191.001436 37.0
191.061016 12.0
191.082676 5.0
191.999198 7.0
192.081998 9.0
192.094228 8.0
192.981849 46.0
193.086639 10.0
193.973841 6.0
194.096641 16.0
194.987512 6.0
195.973654 6.0
196.097104 6.0
197.095685 5.0
199.038238 8.0
200.06366 9.0
201.055601 59.0
202.075063 21.0
203.143174 252.0
204.040546 15.0
204.078346 7.0
206.094289 16.0
207.03198 50.0
208.033971 14.0
209.036953 7.0
210.103405 8.0
210.988966 6.0
214.07515 7.0
215.082522 7.0
216.092263 12.0
217.076925 9.0
219.067498 371.0
219.097958 6.0
219.174798 67.0

