>compound 
>formula C19H22O8
>parentmass 401.12068866562
>ionization [M + Na]+
>instrumentation Unknown (LCMS)
>source file:/Users/fanzhoukong/Documents/GitHub/Libgen/data/EAD_PFP/0_unknown_/spectrum.ms
>quality UNKNOWN

>ms2peaks
112.14393 22.0
115.054851 214.0
117.068471 91.0
117.069531 291.0
122.578833 22.0
126.045493 324.0
127.057153 3541.0
128.061764 2196.0
129.069234 776.0
130.040424 384.0
131.048894 9802.0
132.058995 358.0
133.063955 347.0
135.042005 57.0
137.019766 54.0
138.039916 103.0
139.047706 290.0
141.062606 38.0
142.048637 77.0
143.043967 303.0
143.047487 714.0
144.060417 391.0
145.063927 3557.0
147.042198 80.0
158.03475 45.0
159.04496 2538.0
160.05343 331.0
161.060111 1455.0
163.051671 226.0
164.060201 94.0
165.069312 830.0
166.067632 190.0
167.074042 529.0
168.063162 181.0
169.055202 193.0
170.042493 191.0
171.039053 929.0
171.048033 4306.0
172.050123 303.0
172.509153 80.0
173.057703 1875.0
173.068023 7790.0
174.059183 150.0
175.041534 2478.0
176.060424 243.0
177.056194 131.0
177.071834 155.0
178.077004 235.0
179.053554 172.0
179.086334 145.0
181.068725 215.0
183.040795 150.0
184.084016 136.0
185.058226 294.0
186.072416 52.0
187.037126 246.0
188.039246 83.0
188.048656 2275.0
189.054827 3060.0
189.061567 8125.0
190.071787 393.0
191.068467 2273.0
192.055527 61.0
192.982527 55.0
193.064197 70.0
194.068668 83.0
195.079868 107.0
196.051148 114.0
197.056488 131.0
198.105738 71.0
199.043079 1251.0
200.043569 313.0
201.057689 4236.0
202.068789 735.0
203.06848 3797.0
203.07684 10913.0
204.04964 136.0
205.06262 346.0
206.06827 52.0
207.03974 68.0
208.054441 77.0
209.056061 70.0
209.090061 56.0
211.077901 99.0
212.048231 86.0
213.060842 102.0
215.035812 170.0
216.042572 237.0
217.047332 402.0
219.039223 1641.0
220.050903 58.0
221.059113 161.0
222.071094 73.0
223.073664 122.0
224.049174 56.0
225.054734 214.0
227.071125 68.0
228.044955 262.0
229.041645 1175.0
229.053515 1999.0
231.087695 44.0
234.048686 142.0
234.066676 68.0
237.051127 56.0
238.062757 132.0
239.064397 92.0
240.056007 185.0
241.051198 283.0
243.063028 55.0
245.057138 98.0
246.053419 567.0
247.074789 14262.0
249.054349 193.0
250.117569 61.0
251.07594 121.0
252.07347 38.0
253.07922 60.0
255.063851 182.0
257.035811 74.0
261.054762 56.0
263.067212 126.0
265.045883 139.0
267.060803 93.0
268.078323 40.0
269.051193 106.0
270.979664 69.0
273.146474 50.0
275.068405 62.0
277.055745 105.0
277.145435 45.0
278.052935 50.0
279.079726 139.0
281.048636 37.0
281.076556 130.0
283.055806 117.0
284.048847 120.0
285.063497 57.0
286.146227 77.0
287.066667 63.0
290.050338 40.0
291.058918 50.0
293.079639 98.0
297.147149 49.0
299.09228 117.0
300.06045 80.0
305.135151 54.0
307.061581 80.0
309.080192 180.0
310.081632 83.0
311.093312 87.0
314.077513 114.0
316.094603 63.0
321.076104 44.0
323.089135 111.0
324.098875 70.0
325.069575 70.0
326.077116 38.0
327.087946 70.0
329.098386 23.0
339.084078 53.0
340.091398 67.0
341.103849 60.0
353.061101 116.0
354.111081 83.0
355.114622 137.0
356.104802 24.0
357.201872 24.0
368.094364 39.0
383.172498 322.0
386.223698 24.0
400.115491 173.0
401.233201 3885.0

