>compound 
>formula C16H20O5
>parentmass 310.16489474245003
>ionization [M + H3N + H]+
>instrumentation Unknown (LCMS)
>source file:/Users/fanzhoukong/Documents/GitHub/Libgen/data/EAD_PFP/0_unknown_/spectrum.ms
>quality UNKNOWN

>ms2peaks
50.014082 164.0
51.022273 884.0
52.031344 25.0
53.040315 53.0
54.043835 27.0
55.018256 237.0
55.030606 102.0
55.048046 135.0
57.045718 34.0
57.070138 1421.0
58.036259 36.0
59.04888 181.0
61.026901 15.0
62.009612 18.0
63.021953 180.0
64.031514 32.0
65.038825 504.0
67.054566 1649.0
69.070128 1486.0
71.05029 306.0
72.052941 82.0
73.044201 40.0
73.063451 111.0
74.020312 36.0
75.023273 91.0
75.041093 65.0
76.032974 55.0
76.038104 54.0
77.041695 4684.0
78.044936 632.0
79.054676 1805.0
81.071568 186.0
83.01565 68.0
84.053361 16.0
85.027931 111.0
85.046901 711.0
85.056841 341.0
85.063172 399.0
86.033572 221.0
87.042373 20.0
89.037875 772.0
90.047356 678.0
91.055987 4527.0
92.042977 43.0
93.065528 37.0
94.067119 25.0
95.01677 38.0
95.04829 179.0
99.078453 21.0
101.040215 32.0
101.055975 94.0
102.047106 745.0
103.058997 7902.0
104.062878 735.0
105.071628 4585.0
105.594439 20.0
106.034809 39.0
106.043889 54.0
106.071129 47.0
107.04899 50.0
107.05508 28.0
110.062963 15.0
110.997083 21.0
112.009794 53.0
113.015645 33.0
114.038536 20.0
114.049006 18.0
115.056587 3358.0
116.054888 72.0
116.064388 256.0
117.070218 1650.0
118.044209 1113.0
119.05322 813.0
120.054721 53.0
121.066882 4007.0
123.389974 18.0
126.048406 39.0
127.056757 359.0
128.063588 1345.0
129.069939 583.0
130.60923 29.0
131.05522 8038.0
132.049591 97.0
132.060851 237.0
133.060142 358.0
133.066922 3314.0
134.033723 168.0
134.062083 114.0
134.077973 50.0
135.064364 46.0
135.082584 78.0
137.059475 18.0
137.998066 21.0
139.049577 45.0
140.065658 21.0
141.072649 300.0
142.04705 29.0
142.07973 56.0
143.05291 373.0
143.08922 27.0
144.057611 506.0
145.065852 1119.0
146.030223 23.0
146.036143 121.0
146.060993 24.0
147.046504 2427.0
148.041265 97.0
148.053205 475.0
149.062125 405.0
150.039686 19.0
151.048127 49.0
151.055357 101.0
152.062378 385.0
153.065439 80.0
153.070299 341.0
154.06697 40.0
154.07426 109.0
155.06078 38.0
155.08153 326.0
155.08639 596.0
156.056551 72.0
156.073681 49.0
156.083481 63.0
157.064122 341.0
158.034273 34.0
158.041663 162.0
158.056443 118.0
158.069993 73.0
158.522323 17.0
159.046954 10162.0
160.055425 925.0
160.524255 20.0
160.634725 32.0
161.063356 8153.0
162.033296 183.0
162.047016 126.0
162.059486 92.0
163.041177 137.0
163.054937 126.0
163.069957 104.0
163.084957 69.0
163.911678 18.0
164.062218 17.0
165.044919 20.0
165.073859 271.0
165.524759 23.0
166.07095 30.0
167.069761 71.0
167.086211 163.0
167.106471 30.0
168.061401 150.0
168.069011 129.0
168.142681 27.0
169.067442 246.0
169.081452 86.0
169.103102 32.0
170.020273 21.0
170.072663 43.0
170.084153 37.0
171.037294 61.0
171.047534 261.0
171.062914 165.0
171.082124 93.0
172.054745 148.0
172.068875 88.0
172.086865 64.0
172.494495 22.0
173.063626 4354.0
174.048336 23.0
174.062566 56.0
174.067716 75.0
175.042317 9134.0
176.044318 129.0
176.048208 432.0
176.495619 36.0
177.059589 11527.0
178.06603 37.0
178.0804 54.0
178.54741 16.0
179.083201 25.0
179.097611 21.0
181.069512 137.0
181.086642 22.0
182.074043 143.0
183.064144 72.0
183.080044 427.0
184.071525 114.0
184.086145 191.0
185.049696 49.0
185.063026 390.0
185.089666 132.0
186.066537 59.0
186.103957 23.0
186.740607 21.0
187.043287 10141.0
187.688278 34.0
187.865478 21.0
188.044098 101.0
188.056178 39.0
188.417719 78.0
188.429819 149.0
188.443269 269.0
188.468829 56.0
189.061029 24544.0
190.06045 727.0
190.27389 129.0
190.64433 173.0
191.071991 145.0
197.071046 48.0
199.041148 71.0
199.078448 24.0
201.058529 6353.0
201.102979 1151.0
203.063731 91.0
203.073501 1813.0
205.053643 120.0
206.070503 40.0
209.782727 250.0
210.072277 32.0
211.075898 96.0
212.043378 120.0
212.083329 227.0
212.093329 132.0
212.861559 115.0
213.060279 253.0
213.075989 257.0
214.06382 16.0
214.939001 105.0
215.071161 449.0
215.085511 456.0
217.087163 1726.0
219.067624 1065.0
225.090879 89.0
227.080851 86.0
228.039932 100.0
228.082822 209.0
229.095903 31.0
229.664153 95.0
231.100495 505.0
234.752978 110.0
242.296304 28.0
242.322234 40.0
242.339014 37.0
242.439684 19.0
243.105165 20891.0
243.887835 29.0
244.100525 20.0
244.216876 22.0
244.299526 23.0
244.374576 56.0
244.474116 29.0
244.892456 33.0
245.074916 31.0
245.087186 43.0
246.105027 26.0
246.550908 21.0
247.128068 31.0
250.830111 26.0
251.530322 46.0
253.136233 35.0
258.120017 19.0
259.079398 19.0
259.099878 65.0
260.253839 27.0
261.11587 16706.0
262.068081 23.0
262.464721 28.0
262.532961 18.0
262.666291 24.0
263.341492 21.0
263.769292 17.0
263.942752 22.0
264.277072 28.0
264.849093 20.0
265.271763 30.0
266.153204 28.0
274.695781 24.0
275.108352 23.0
275.131112 22.0
276.115032 26.0
276.367413 29.0
278.135574 17.0
278.176434 17.0
281.151447 24.0
293.820707 20.0
299.050932 50.0
309.20179 33.0
310.187901 18.0

