>compound 
>formula C24H24O8
>parentmass 458.1809387300801
>ionization [M + H3N + H]+
>instrumentation Unknown (LCMS)
>source file:/Users/fanzhoukong/Documents/GitHub/Libgen/data/EAD_PFP/0_unknown_/spectrum.ms
>quality UNKNOWN

>ms2peaks
115.054287 1881.0
117.063646 99.0
117.072126 533.0
118.041856 90.0
119.050856 544.0
121.022455 95.0
121.046165 276.0
125.044894 106.0
126.048134 185.0
127.055383 712.0
128.064413 1250.0
129.069643 508.0
130.079942 103.0
131.051552 378.0
141.069959 66.0
143.050199 110.0
143.084179 152.0
144.059598 307.0
145.080798 1393.0
145.091418 1865.0
146.038128 119.0
146.046418 99.0
147.046108 1929.0
149.061737 321.0
150.048887 177.0
151.053736 357.0
152.065576 1774.0
153.072306 2655.0
154.079926 828.0
155.092065 6033.0
156.089165 101.0
157.067345 1845.0
158.074474 5669.0
159.046504 1913.0
160.088434 694.0
161.092734 658.0
161.098954 2289.0
162.030343 37.0
162.046553 75.0
163.056973 196.0
164.061743 230.0
165.072122 1102.0
166.080542 165.0
167.084452 127.0
168.060892 88.0
169.064381 154.0
169.072031 204.0
169.091131 142.0
171.050861 201.0
171.082891 375.0
172.088941 104.0
172.53257 71.0
173.10436 7303.0
175.04047 942.0
176.064569 537.0
177.072069 301.0
178.082479 758.0
179.106219 2813.0
180.090858 64.0
181.070268 455.0
182.074808 129.0
183.048967 55.0
183.080787 165.0
185.022447 304.0
187.038666 181.0
187.053406 905.0
188.050206 93.0
188.069016 80.0
189.067156 1589.0
190.080115 447.0
191.109305 8969.0
192.072005 98.0
193.068465 69.0
194.077044 284.0
195.080044 376.0
197.097913 157.0
199.040483 131.0
199.070893 63.0
200.063123 164.0
201.070362 374.0
202.078702 1316.0
203.036532 5142.0
204.041391 84.0
205.068391 550.0
206.076861 279.0
207.080751 1162.0
208.07296 78.0
208.09134 93.0
209.06045 65.0
209.09163 89.0
209.09871 324.0
210.07869 57.0
211.075189 128.0
213.088149 176.0
215.089088 256.0
217.056098 499.0
218.074797 813.0
219.074117 1074.0
220.091697 290.0
221.069417 324.0
221.076697 390.0
221.099997 184.0
222.072636 97.0
223.081076 342.0
224.084466 65.0
225.069515 90.0
225.091565 299.0
226.078835 204.0
227.084495 123.0
228.095355 131.0
229.086214 143.0
230.074764 77.0
231.052034 631.0
231.068414 609.0
231.077354 767.0
232.056753 82.0
232.085103 169.0
233.075613 148.0
233.095053 178.0
234.071223 416.0
235.080973 1463.0
236.083862 259.0
237.094932 1123.0
239.088691 208.0
240.087921 48.0
241.090791 271.0
241.099921 216.0
242.072861 67.0
243.08139 110.0
243.10277 143.0
244.092 85.0
245.0587 52.0
245.09705 178.0
246.088779 249.0
247.076369 2787.0
248.082899 485.0
249.093019 1018.0
250.061818 99.0
250.089708 78.0
251.069748 342.0
251.082168 361.0
253.090137 481.0
255.081067 181.0
256.091227 89.0
257.071946 49.0
257.104936 197.0
258.070296 259.0
258.084456 386.0
259.078446 1767.0
260.090166 203.0
261.094345 828.0
262.063975 89.0
262.086165 83.0
263.073525 1408.0
264.081864 295.0
265.084144 908.0
266.096294 96.0
267.063974 71.0
268.086313 223.0
269.089733 198.0
271.102182 752.0
272.085372 104.0
273.091382 363.0
273.110792 258.0
274.083022 79.0
274.099252 496.0
275.073221 3091.0
276.086341 461.0
277.086681 743.0
279.06821 2052.0
281.07487 316.0
281.08143 754.0
282.089119 43.0
282.102269 87.0
283.108469 206.0
283.121649 102.0
284.088419 188.0
285.091528 132.0
285.096498 345.0
286.078188 238.0
286.103068 253.0
287.076518 806.0
287.089818 1132.0
288.096568 70.0
288.114848 98.0
289.121707 1192.0
290.093637 66.0
291.073857 857.0
291.090577 603.0
292.072486 211.0
293.082916 4201.0
294.081606 71.0
295.100526 705.0
297.082855 117.0
297.118315 83.0
299.098944 95.0
299.114194 173.0
300.118014 142.0
301.121824 1348.0
302.098394 190.0
302.123934 145.0
302.137544 148.0
303.107213 741.0
303.864933 74.0
304.075013 73.0
305.080263 501.0
307.099212 1761.0
309.081782 2558.0
310.081481 90.0
310.102171 51.0
311.108731 366.0
312.078821 125.0
313.09375 107.0
314.09298 157.0
316.06833 88.0
316.13452 56.0
317.122889 3812.0
318.130249 290.0
319.137479 2675.0
320.119988 71.0
321.079468 852.0
323.094238 411.0
325.072927 94.0
325.117087 159.0
327.105496 256.0
328.114406 73.0
329.128416 7015.0
331.070185 198.0
331.096945 200.0
333.080285 73.0
333.110675 50.0
333.150015 59.0
335.132314 3440.0
336.140924 54.0
337.104304 219.0
337.138484 291.0
337.149254 632.0
338.087053 36.0
343.134812 466.0
344.106342 72.0
345.119251 5431.0
346.120931 136.0
347.133141 6431.0
349.12178 97.0
349.14742 153.0
351.06838 85.0
351.08858 246.0
352.245929 68.0
353.127149 342.0
353.141859 3178.0
355.099629 1300.0
357.097948 180.0
361.150527 3868.0
362.115527 40.0
363.128466 13759.0
364.131606 67.0
365.141736 2833.0
367.154955 59.0
369.102155 2775.0
371.216844 55.0
373.110453 2607.0
377.144202 347.0
379.157752 923.0
381.140331 3927.0
382.146981 68.0
387.121039 395.0
387.126809 518.0
391.123048 5918.0
395.149537 281.0
404.116645 38.0
405.139344 814.0
409.134123 2415.0
423.150269 6712.0
441.161824 5584.0
458.182699 137.0
458.249799 117.0

