>compound 
>formula C9H8O4
>parentmass 203.03147973612
>ionization [M + Na]+
>instrumentation Unknown (LCMS)
>source file:/Users/fanzhoukong/Documents/GitHub/Libgen/data/EAD_PFP/0_unknown_/spectrum.ms
>quality UNKNOWN

>ms2peaks
50.014897 95.0
51.021007 317.0
52.031488 80.0
53.037608 85.0
54.033908 32.0
54.038948 7.0
55.053298 258.0
56.049929 22.0
56.963789 23.0
57.068089 13.0
58.064059 32.0
58.993369 8.0
59.048309 6.0
61.00797 10.0
62.01599 40.0
63.02294 262.0
64.02467 7.0
64.03094 22.0
65.03746 780.0
66.044661 95.0
67.052391 206.0
68.024101 28.0
68.050771 11.0
68.995481 111.0
70.064741 25.0
70.958912 5.0
72.079812 25.0
72.937332 47.0
74.016362 43.0
75.020993 56.0
76.030693 73.0
77.039393 1361.0
78.046093 92.0
79.052353 370.0
80.046654 19.0
80.054544 26.0
81.068344 175.0
82.068104 22.0
83.086494 46.0
84.081514 64.0
84.958715 60.0
85.048125 8.0
86.013905 11.0
87.022595 5.0
88.027065 7.0
89.038215 373.0
89.939896 17.0
90.043986 36.0
91.055396 1134.0
92.058366 180.0
93.066826 63.0
94.066537 33.0
95.047697 6.0
95.067757 18.0
95.083997 29.0
95.953327 8.0
96.959697 13.0
97.064867 14.0
97.943187 8.0
98.095457 11.0
99.989718 5.0
100.112198 23.0
101.041588 16.0
102.043548 74.0
103.053428 129.0
104.052289 35.0
105.070029 141.0
106.065479 62.0
107.082859 22.0
108.002239 8.0
108.080649 7.0
109.09432 10.0
111.00061 22.0
112.11081 185.0
112.998371 22.0
115.054931 676.0
116.054281 57.0
117.065371 165.0
118.063822 35.0
119.048332 11.0
119.082542 19.0
121.028542 51.0
121.099682 20.0
123.114203 10.0
126.045583 46.0
126.902703 11.0
127.053933 108.0
128.060764 460.0
129.067094 93.0
129.139454 16.0
130.063984 139.0
130.987304 16.0
131.077014 50.0
131.085984 10.0
132.021945 19.0
132.072605 12.0
132.902495 5.0
133.067435 13.0
133.101335 18.0
134.076205 8.0
134.096625 7.0
135.091065 8.0
135.114975 6.0
136.109745 6.0
137.133406 5.0
138.043476 6.0
138.127506 5.0
139.052416 91.0
140.051116 38.0
141.068526 129.0
141.926177 12.0
142.075597 46.0
143.074547 54.0
143.894767 8.0
144.080497 62.0
145.026267 8.0
145.072287 6.0
145.079367 10.0
145.099427 21.0
145.969207 35.0
146.095888 6.0
147.043488 159.0
148.110978 11.0
150.046258 14.0
151.052309 39.0
152.060519 90.0
153.069659 66.0
154.067559 39.0
155.057699 16.0
155.068689 12.0
155.078439 15.0
155.085749 7.0
156.08527 19.0
156.09141 15.0
157.07819 25.0
157.09171 28.0
158.09521 36.0
158.10754 6.0
159.08584 5.0
160.11426 14.0
161.095041 22.0
161.107471 10.0
162.103741 6.0
163.128101 7.0
164.060311 12.0
165.071952 166.0
166.072812 57.0
167.071622 11.0
167.077962 63.0
168.055662 16.0
168.075982 20.0
169.078242 20.0
169.088432 15.0
169.098622 13.0
170.092433 30.0
170.102653 10.0
171.100683 7.0
171.110943 9.0
172.106773 12.0
173.037213 8.0
173.096493 6.0
173.106803 16.0
174.129103 11.0
175.039054 151.0
176.061844 24.0
176.984634 5.0
177.061534 18.0
177.070654 26.0
178.074524 107.0
179.083824 39.0
180.080225 33.0
181.080705 15.0
182.188395 33.0
183.035645 7.0
184.064206 11.0
184.085476 18.0
184.109406 8.0
185.070336 325.0
187.056016 20.0
188.067596 6.0
188.144176 8.0
189.068437 75.0
190.070567 20.0
190.999557 35.0
191.071317 9.0
191.086207 11.0
191.998657 6.0
192.071957 16.0
192.084177 14.0
192.979947 64.0
193.090197 6.0
193.101077 7.0
193.981478 7.0
194.096098 37.0
194.959608 12.0
195.088208 11.0
195.116938 12.0
196.110278 13.0
197.084118 6.0
198.127948 6.0
200.061719 10.0
201.066159 17.0
202.048049 11.0
202.077289 61.0
203.03652 12.0
203.08119 69.0
203.10632 29.0

