>compound 
>formula C25H26O10
>parentmass 504.18641803368
>ionization [M + H3N + H]+
>instrumentation Unknown (LCMS)
>source file:/Users/fanzhoukong/Documents/GitHub/Libgen/data/EAD_PFP/0_unknown_/spectrum.ms
>quality UNKNOWN

>ms2peaks
50.01608 228.0
51.023588 498.0
52.025597 70.0
52.030547 87.0
53.038066 253.0
54.037245 22.0
55.017404 66.0
55.041384 152.0
55.046474 236.0
55.053744 310.0
56.050373 279.0
57.033002 1231.0
59.05023 351.0
60.984647 56.0
62.016386 56.0
63.024105 248.0
64.030534 66.0
65.041783 1003.0
66.039462 41.0
67.055151 545.0
68.03092 32.0
69.071529 2210.0
70.066727 39.0
71.050046 1350.0
73.066554 843.0
74.014993 57.0
75.023852 52.0
76.030991 119.0
77.03969 1320.0
78.037729 80.0
78.043789 123.0
79.053508 716.0
80.048686 71.0
81.069495 124.0
82.063934 29.0
83.090323 29.0
86.01596 22.0
87.025579 38.0
89.035667 216.0
90.037695 36.0
91.055614 1396.0
92.057633 163.0
92.995222 32.0
93.049072 78.0
93.063252 53.0
94.062931 36.0
95.0498 71.0
95.0603 51.0
95.08323 36.0
97.068908 2329.0
99.014656 41.0
101.039773 34.0
102.046662 86.0
103.056551 142.0
104.05243 64.0
105.049079 69.0
105.072169 72.0
106.065608 37.0
107.073857 48.0
108.080766 32.0
113.00055 76.0
113.04117 26.0
114.044299 32.0
115.081288 4386.0
116.041697 59.0
116.057527 62.0
117.058026 51.0
117.069686 137.0
119.049463 42.0
121.028601 211.0
123.079469 31.0
125.040197 20.0
126.044516 170.0
127.053955 270.0
128.061894 280.0
129.058212 33.0
129.067112 69.0
130.066211 87.0
131.05235 40.0
132.102989 817.0
133.086638 33.0
134.017217 20.0
135.094456 39.0
137.027874 24.0
138.035393 23.0
138.049203 62.0
139.055851 542.0
140.05805 51.0
141.071979 634.0
142.072048 69.0
143.054567 88.0
144.065156 41.0
145.061595 61.0
145.072215 51.0
146.089904 24.0
149.0387 30.0
150.048579 97.0
151.054628 198.0
152.061637 1107.0
153.069566 200.0
154.067445 60.0
154.073515 33.0
155.050284 175.0
156.058263 22.0
156.080273 43.0
157.068272 59.0
158.10249 31.0
161.053877 22.0
163.055395 360.0
164.062694 168.0
165.073063 982.0
166.057512 21.0
167.056281 66.0
167.074011 53.0
168.058029 275.0
169.067898 319.0
170.066707 32.0
170.080777 42.0
171.044146 300.0
172.052645 49.0
173.058924 211.0
174.016473 24.0
175.055722 34.0
176.064251 314.0
177.070469 176.0
178.079548 565.0
179.069217 152.0
179.086267 293.0
180.062936 127.0
181.064685 498.0
182.071844 57.0
182.083744 48.0
183.044693 207.0
184.050702 226.0
185.055461 67.0
187.046398 31.0
187.055778 99.0
188.056617 46.0
188.059287 142.0
189.072226 990.0
190.077095 161.0
191.084614 139.0
192.049993 35.0
192.060863 122.0
193.069522 189.0
193.083132 89.0
194.071281 34.0
194.082201 47.0
195.06469 76.0
196.055129 132.0
196.090809 31.0
197.064607 976.0
198.044956 64.0
198.067016 112.0
199.040175 244.0
200.029574 51.0
200.048974 172.0
201.054763 204.0
202.075622 49.0
202.079802 90.0
203.076711 37.0
203.138151 22.0
204.07188 31.0
205.066669 283.0
206.079367 92.0
206.106087 51.0
207.050846 83.0
207.081856 318.0
208.052875 81.0
208.071245 33.0
209.062994 480.0
210.052823 41.0
210.071273 176.0
211.050692 96.0
211.080572 232.0
212.048061 190.0
213.05495 197.0
214.071379 33.0
215.072998 32.0
217.068795 226.0
218.073034 193.0
219.072363 44.0
219.078163 89.0
220.057972 51.0
220.068152 75.0
221.063281 367.0
223.038349 139.0
223.060309 126.0
224.050428 150.0
225.058927 1987.0
226.066745 422.0
227.060574 50.0
227.070924 177.0
228.046233 433.0
229.053292 280.0
230.059601 25.0
230.101211 33.0
233.058858 76.0
234.072427 148.0
235.076166 601.0
236.042924 73.0
236.065514 66.0
237.059943 905.0
238.070052 340.0
239.050521 607.0
240.033 155.0
240.04817 392.0
241.050949 835.0
242.058848 83.0
245.061475 103.0
247.065302 46.0
247.076072 253.0
248.040941 28.0
248.068721 20.0
249.05562 343.0
250.061529 114.0
251.036848 286.0
251.046178 146.0
252.046757 130.0
252.057637 80.0
253.055556 3916.0
254.061695 1520.0
255.066693 671.0
256.039182 461.0
257.046531 1160.0
258.04324 48.0
258.05584 219.0
261.054467 63.0
262.065266 171.0
263.073235 1756.0
264.043354 63.0
264.060874 133.0
265.053542 2471.0
266.060871 472.0
267.06368 954.0
268.041119 186.0
269.049268 187.0
270.060927 48.0
271.063186 47.0
272.033365 28.0
273.047374 83.0
273.057104 94.0
274.063273 23.0
275.074561 219.0
277.042359 89.0
277.055389 209.0
278.062378 74.0
279.066287 753.0
280.060516 75.0
280.073636 203.0
281.087705 5164.0
282.078944 68.0
283.063693 52.0
290.059985 81.0
291.075274 4791.0
292.072223 210.0
293.080952 847.0
294.037641 30.0
294.05782 75.0
295.066609 74.0
296.075418 23.0
297.038677 36.0
297.062327 77.0
297.072457 139.0
297.089337 81.0
298.047496 22.0
298.089766 66.0
303.071111 23.0
307.064606 45.0
308.074825 99.0
309.081514 8636.0
309.086674 4625.0
311.054872 35.0
313.08654 34.0
319.061943 59.0
319.089953 45.0
320.072402 26.0
321.079181 288.0
326.094345 25.0
327.089274 4426.0
328.099923 37.0
335.178655 45.0
337.071653 136.0
338.075992 32.0
339.087221 29.0
355.079053 54.0
356.087652 41.0
362.997524 26.0
373.072373 56.0
373.098863 164.0
381.008135 26.0
486.147759 20.0
504.134949 71.0
504.156949 78.0
504.170129 72.0
504.214139 63.0

