>compound 
>formula C25H28O4
>parentmass 391.19148291395
>ionization [M - H]-
>instrumentation Unknown (LCMS)
>source file:/Users/fanzhoukong/Documents/Fiehnlab/library_generator/data/UVPD/0_unknown_/spectrum.ms
>quality UNKNOWN

>ms2peaks
65.038751 69945.0
67.018253 62064.0
68.997734 15061.0
77.038878 15155.0
79.054319 95780.0
80.02608 19089.0
89.039055 141092.0
91.054326 48332.0
93.033697 64327.0
93.070327 25762.0
94.041807 96224.0
95.012688 43180.0
95.049478 13028.0
102.046222 31267.0
103.054092 26764.0
104.025693 9673.0
105.034184 16184.0
105.070024 55904.0
106.041034 37576.0
107.049335 277403.0
107.086205 14089.0
108.020235 229965.0
109.028836 260049.0
109.065516 638831.0
115.054869 41524.0
117.03433 59892.0
117.06968 20936.0
118.041211 23807.0
119.048571 37503.0
119.086231 11087.0
121.028032 1038112.0
122.036333 487459.0
123.044093 111858.0
129.069607 49229.0
130.041627 99890.0
131.048858 39992.0
131.085908 34099.0
132.020588 42996.0
132.056428 16263.0
133.027879 594376.0
133.065769 38179.0
133.102039 56167.0
134.03673 497538.0
135.04364 178058.0
135.08071 10997.0
137.059021 14907.0
139.054722 19992.0
141.069143 55895.0
142.041894 19832.0
142.078234 46786.0
143.048625 59348.0
143.085365 27582.0
144.056815 16422.0
145.028836 320559.0
145.064466 25844.0
145.101986 29092.0
146.037226 1301142.0
147.044687 286732.0
147.081067 23970.0
148.051007 44962.0
149.059858 39576.0
152.06251 8676.0
153.07003 38853.0
155.086301 49219.0
156.057052 24631.0
157.028522 75515.0
157.064432 73847.0
157.100372 117933.0
158.036803 262715.0
159.044083 297289.0
159.080693 27895.0
160.052304 95257.0
161.024084 20668.0
161.059174 183409.0
161.096484 36342.0
162.066725 20390.0
163.074816 41350.0
165.069277 27703.0
167.049578 32118.0
167.086678 21687.0
168.057808 16328.0
169.065739 45982.0
169.101139 23884.0
170.035149 53062.0
170.073229 16127.0
171.04414 119242.0
171.08016 35574.0
172.052441 85825.0
173.059901 213845.0
173.096561 16784.0
174.066372 69158.0
175.074202 229966.0
176.083273 48056.0
177.090983 1026147.0
179.086204 37453.0
180.057565 65171.0
181.065626 73972.0
182.037316 35067.0
183.043457 144639.0
183.080687 51201.0
184.052607 65219.0
185.059308 181369.0
185.097148 35485.0
186.068828 73407.0
187.075669 127079.0
188.082369 28956.0
189.09165 493681.0
191.086521 22836.0
193.064122 65911.0
194.073173 44409.0
195.043353 65361.0
195.081383 69692.0
196.053254 138693.0
197.059134 313014.0
198.066775 90863.0
199.039965 14604.0
199.076165 183996.0
200.084146 13342.0
201.090627 1147520.0
203.107848 140788.0
204.058998 10929.0
205.064129 24980.0
205.101969 11667.0
206.073529 24888.0
207.0456 32007.0
207.08079 77082.0
208.05037 105196.0
209.059201 244448.0
209.094911 16948.0
210.029632 12505.0
210.068862 89375.0
211.039762 58850.0
211.075972 135943.0
211.112182 11520.0
212.047243 30383.0
212.083713 27611.0
213.055263 17689.0
213.091993 313352.0
214.097414 72080.0
215.106534 82016.0
216.116025 11609.0
217.063955 13028.0
219.044727 18583.0
219.079537 29205.0
219.117827 16434.0
220.050557 44882.0
221.059788 158557.0
221.098608 25934.0
222.068878 130818.0
223.038409 40827.0
223.074179 258761.0
224.046699 145646.0
224.082709 23590.0
225.05459 156457.0
225.09083 36438.0
226.06199 22258.0
227.105571 23949.0
229.084142 14045.0
229.125102 18203.0
231.081183 11872.0
232.053464 12978.0
233.058604 90947.0
233.096814 19330.0
234.066465 57665.0
235.038315 37184.0
235.076995 208113.0
236.047356 44582.0
236.082406 66937.0
237.055096 190766.0
237.090356 88894.0
238.061397 177744.0
239.070178 146548.0
239.105898 33100.0
240.113308 11707.0
241.123109 20014.0
245.098851 16050.0
246.065671 21627.0
247.075762 106442.0
248.045933 25633.0
248.083683 45257.0
249.055573 138009.0
249.089343 98022.0
250.062914 94367.0
251.033664 49997.0
251.072104 199284.0
251.106264 42826.0
252.040155 139908.0
252.078815 51328.0
252.113195 19414.0
253.048375 131641.0
253.087285 62063.0
253.121865 61429.0
254.058326 25277.0
259.074469 27683.0
259.110299 11500.0
260.084699 12970.0
261.05558 60720.0
261.09181 82150.0
262.06379 39491.0
262.10023 30286.0
263.068681 122353.0
263.105331 56474.0
264.042491 77982.0
264.079361 50181.0
264.111611 26273.0
265.049542 374980.0
265.086592 135905.0
265.119032 37239.0
266.057692 290524.0
266.127573 13127.0
267.066913 584397.0
267.137223 17286.0
268.072464 35470.0
273.055616 14901.0
273.089526 23910.0
274.061117 20043.0
274.100087 12296.0
275.072197 71171.0
275.106467 49049.0
276.078968 10962.0
276.113448 24673.0
277.051719 265282.0
277.121049 150886.0
278.059499 228060.0
278.129199 43387.0
279.06777 598829.0
279.13784 43346.0
280.07146 158893.0
281.080591 468965.0
287.068594 22639.0
287.105124 11631.0
289.047355 47949.0
289.121245 59246.0
290.057676 44299.0
291.062646 127249.0
291.137296 100559.0
292.072847 78838.0
292.147887 43971.0
293.082947 686105.0
294.125308 29765.0
295.097079 15977.0
301.125492 12964.0
303.064643 19975.0
303.104283 27530.0
303.138283 40239.0
304.075383 14610.0
304.109563 17701.0
304.143714 25145.0
305.079774 181646.0
306.089115 42105.0
307.097725 121490.0
307.132395 66693.0
308.105536 11537.0
308.140356 17931.0
315.10273 12058.0
317.081681 12954.0
317.118021 21273.0
317.154401 20767.0
318.090311 11047.0
318.126841 40844.0
319.097642 27965.0
319.134382 40459.0
320.103652 46147.0
321.114393 977038.0
322.117503 597323.0
323.125354 84507.0
323.200214 14040.0
329.119037 10006.0
331.095818 10235.0
331.166978 30555.0
332.178639 15259.0
333.11004 349252.0
335.103171 35185.0
335.129511 581645.0
336.132921 790402.0
347.126797 118624.0
347.203187 87305.0
348.135768 414428.0
349.184198 14217.0
357.149753 9107.0
359.165444 9338.0
361.146675 36992.0
363.196356 21549.0
373.176652 49287.0
375.158063 24264.0
376.166423 326390.0
389.17547 31683.0
391.194422 1510326.0

