>compound 
>formula C47H78O20
>parentmass 985.49786590534
>ionization [M + Na]+
>instrumentation Unknown (LCMS)
>source file:/Users/fanzhoukong/Documents/GitHub/Libgen/data/EAD_PFP/0_unknown_/spectrum.ms
>quality UNKNOWN

>ms2peaks
115.055498 78.0
116.059079 18.0
117.06383 42.0
121.099186 11.0
127.050114 101.0
128.064685 127.0
130.064577 23.0
131.070899 28.0
132.08672 19.0
150.045704 41.0
151.054175 64.0
152.059967 143.0
153.069108 104.0
154.065789 63.0
155.064461 38.0
156.078602 65.0
157.043273 31.0
158.103265 26.0
159.116176 55.0
160.108767 14.0
161.134259 33.0
163.049971 59.0
165.071384 84.0
166.059605 34.0
167.073586 90.0
168.079218 58.0
169.078949 67.0
170.09442 20.0
172.110063 25.0
175.148657 28.0
176.063858 26.0
177.06226 35.0
178.077861 59.0
179.084562 76.0
181.082755 24.0
183.065538 42.0
184.087539 34.0
185.04311 83.0
186.058592 11.0
188.061624 11.0
189.071896 58.0
190.065937 21.0
191.082908 35.0
192.977991 63.0
195.113603 37.0
199.059189 48.0
201.032221 46.0
201.041941 77.0
202.055813 55.0
203.052664 65.0
203.081984 25.0
204.082755 54.0
205.087417 38.0
207.029399 88.0
210.130623 48.0
211.117285 11.0
211.986446 30.0
214.076819 31.0
220.178347 11.0
225.079243 23.0
230.07571 30.0
231.097661 11.0
235.146536 20.0
237.162289 17.0
239.179062 21.0
245.08275 12.0
258.071417 36.0
259.079568 69.0
265.016736 42.0
266.006397 12.0
267.009109 49.0
271.077604 13.0
271.084034 12.0
275.072809 30.0
277.045532 12.0
281.048197 102.0
283.2367 20.0
287.149215 12.0
289.093038 67.0
297.192288 26.0
297.224388 29.0
299.234161 43.0
303.069366 90.0
319.091727 75.0
319.102227 217.0
328.147869 27.0
329.078411 62.0
331.094923 44.0
337.114891 12.0
339.222584 23.0
339.229824 161.0
343.138269 66.0
345.153652 45.0
346.087953 263.0
347.094664 231.0
349.110657 141.0
359.19829 12.0
361.077813 48.0
363.090996 1059.0
364.095967 94.0
365.111658 205.0
367.228051 18.0
386.824217 12.0
387.213527 22.0
394.242587 11.0
413.236142 18.0
433.171838 76.0
451.141492 12.0
465.249241 42.0
465.299931 26.0
467.315923 28.0
481.291932 39.0
484.311886 12.0
487.17908 192.0
490.195744 12.0
491.263435 44.0
499.268726 66.0
505.271114 23.0
511.300482 49.0
513.329354 12.0
519.285902 16.0
519.292622 146.0
520.311053 24.0
525.32174 29.0
527.270233 43.0
529.269625 24.0
530.282017 44.0
531.297638 21.0
543.241194 40.0
545.275196 70.0
545.323226 44.0
547.274039 49.0
555.24597 60.0
557.306892 137.0
571.332241 12.0
573.291473 98.0
574.302885 44.0
575.291656 40.0
597.367615 42.0
600.361819 33.0
610.299022 12.0
613.340046 40.0
615.350489 76.0
615.374779 50.0
616.36422 28.0
616.39101 57.0
617.378812 12.0
623.30045 92.0
624.313391 167.0
627.344885 24.0
627.389075 25.0
629.360938 43.0
641.376333 40.0
643.367616 73.0
643.380066 392.0
644.384277 118.0
645.361939 48.0
649.314944 49.0
651.336007 43.0
652.341438 55.0
658.372696 52.0
659.373487 111.0
661.39754 210.0
662.330041 107.0
663.338833 573.0
664.340904 355.0
665.353785 214.0
667.230068 29.0
673.347446 31.0
673.365206 130.0
677.326461 65.0
678.321152 79.0
679.331894 754.0
680.345875 101.0
687.372854 33.0
689.372497 199.0
689.385307 549.0
689.398187 493.0
691.35956 20.0
701.343033 12.0
703.409625 123.0
705.390828 31.0
707.340901 71.0
707.366961 116.0
708.354762 41.0
709.338033 393.0
717.380954 39.0
718.367895 36.0
719.368567 138.0
731.399652 18.0
745.382761 27.0
747.352494 32.0
761.410922 32.0
763.420625 43.0
774.512129 12.0
777.404653 156.0
779.432676 63.0
793.396374 78.0
803.422148 19.0
805.42538 106.0
805.43094 323.0
806.407072 38.0
807.417203 304.0
808.428014 89.0
809.419896 21.0
821.426132 302.0
823.417964 133.0
823.434804 130.0
824.418995 60.0
825.417777 81.0
835.42237 49.0
839.413825 29.0
849.414149 64.0
850.43942 84.0
851.448211 824.0
852.411772 167.0
853.413114 1399.0
864.466538 52.0
865.45769 85.0
879.418768 15.0
879.436158 53.0
909.430038 40.0
911.481431 13.0
924.460698 18.0
925.458739 43.0
928.471133 30.0
937.480735 31.0
940.455529 33.0
941.46816 133.0
952.462255 21.0
953.454206 95.0
953.475386 99.0
954.479897 156.0
955.497049 59.0
957.454271 16.0
966.490293 44.0
967.486445 87.0
969.458867 138.0
970.480959 36.0
970.499269 64.0
981.476943 66.0
982.419394 45.0
982.483844 78.0
983.488176 830.0
984.502277 1513.0
985.495318 5649.0
985.510698 10555.0

