>compound 
>formula C18H18O2
>parentmass 267.13796081928
>ionization [M + H]+
>instrumentation Unknown (LCMS)
>source file:/Users/fanzhoukong/Documents/GitHub/Libgen/data/EAD_PFP/0_unknown_/spectrum.ms
>quality UNKNOWN

>ms2peaks
50.016225 669.0
51.025833 1880.0
52.029982 76.0
53.03964 187.0
55.018278 756.0
57.069395 113.0
59.032302 163.0
60.98325 38.0
61.01156 33.0
62.016508 102.0
63.025007 559.0
64.030665 36.0
65.041904 2157.0
66.045953 96.0
67.055271 187.0
68.995949 137.0
69.071638 33.0
71.051806 22.0
74.015102 72.0
75.02141 141.0
76.030239 71.0
76.031949 249.0
77.038927 1109.0
77.045807 4168.0
78.045616 430.0
79.056215 1958.0
80.053163 53.0
80.974352 58.0
81.072232 141.0
83.079689 42.0
85.054776 21.0
86.016045 23.0
88.028282 54.0
89.039431 889.0
90.04613 36.0
90.762399 37.0
91.058488 3291.0
92.063337 135.0
93.071815 976.0
94.043984 163.0
95.052723 269.0
97.07186 24.0
98.015169 30.0
98.986437 1304.0
100.013436 20.0
101.038835 41.0
101.047704 38.0
102.048683 642.0
103.055602 3593.0
104.06246 172.0
105.070199 3122.0
106.073718 22.0
106.718387 19.0
107.056656 4224.0
108.052285 25.0
109.083203 46.0
113.010978 33.0
113.033898 31.0
114.050597 44.0
115.056085 4479.0
116.063874 832.0
117.071812 6495.0
118.041541 27.0
118.074541 28.0
119.04947 120.0
119.06443 200.0
119.07406 502.0
119.08475 224.0
120.059538 134.0
121.064167 5255.0
123.079464 36.0
126.0478 244.0
127.057259 2266.0
128.062977 3519.0
129.072656 1456.0
130.079615 550.0
131.053443 1722.0
131.065783 877.0
132.057942 759.0
133.06627 2887.0
134.073899 576.0
135.079638 644.0
139.054652 77.0
140.063791 62.0
141.071939 367.0
142.070838 25.0
143.084977 132.0
144.058045 961.0
145.073344 2195.0
146.074443 132.0
146.101683 36.0
147.083751 5233.0
148.08938 102.0
149.061349 36.0
150.047297 106.0
151.055766 350.0
152.062784 1377.0
153.068273 1057.0
154.077092 241.0
155.06848 216.0
155.08435 1215.0
156.081419 43.0
157.068188 1590.0
158.078996 2740.0
159.081925 596.0
160.090513 213.0
161.098532 585.0
163.046549 69.0
163.056559 141.0
164.065088 204.0
165.071707 1750.0
166.078855 343.0
167.090344 237.0
168.059192 93.0
169.072871 68.0
170.07428 28.0
171.081168 312.0
172.079487 34.0
172.085917 95.0
173.098765 3875.0
174.097764 19.0
175.055573 20.0
176.062811 376.0
177.06902 374.0
178.075489 580.0
179.086107 587.0
180.093026 105.0
181.067165 614.0
182.075663 173.0
183.086952 206.0
184.08511 27.0
187.054276 26.0
188.060475 30.0
189.070724 595.0
190.078272 213.0
191.087141 363.0
192.097329 87.0
193.061168 38.0
193.081588 81.0
193.096568 114.0
194.075187 565.0
195.080905 360.0
196.087884 129.0
197.065783 122.0
197.080923 161.0
197.094672 109.0
197.107042 56.0
198.051651 22.0
199.07868 66.0
200.064008 95.0
201.071247 197.0
202.080976 312.0
203.075104 46.0
203.086274 184.0
204.088463 25.0
205.069272 105.0
205.077692 212.0
206.07212 62.0
207.080219 518.0
208.087967 349.0
209.099586 288.0
210.071045 547.0
211.073223 36.0
211.078923 159.0
211.086043 193.0
211.107393 101.0
212.086352 21.0
214.078309 25.0
215.065558 22.0
215.085688 226.0
216.093976 133.0
217.098865 43.0
218.072794 250.0
219.082262 641.0
220.085351 89.0
221.08051 124.0
221.102359 411.0
222.069168 27.0
222.083768 37.0
223.076127 128.0
223.095157 3053.0
224.083895 487.0
225.082184 165.0
225.089524 409.0
226.100353 128.0
229.087119 28.0
231.073796 71.0
232.088994 67.0
233.100453 144.0
234.067622 46.0
234.103612 195.0
235.07889 112.0
235.10441 86.0
235.11043 72.0
236.084779 114.0
237.092818 1030.0
238.090926 141.0
238.099986 1004.0
239.109295 648.0
247.108094 34.0
249.087761 30.0
249.127951 443.0
249.143431 67.0
250.10146 85.0
251.104818 1009.0
252.119517 520.0
263.104652 18.0
265.121769 353.0
266.132388 173.0
267.143336 2081.0

