>compound 
>formula C20H24N2O2
>parentmass 325.1911
>ionization [M + H]+
>instrumentation Unknown (LCMS)
>source file:/Users/fanzhoukong/Documents/GitHub/Libgen/data/NIST_MONA/0_unknown_/spectrum.ms
>quality UNKNOWN

>ms2peaks
53.0022 0.286263
53.0386 1.725026
53.9973 0.145647
55.0542 3.850458
56.0495 1.594263
57.0573 0.19053
58.0651 1.64853
65.0385 0.835332
66.0464 0.209443
67.0542 9.741421
68.0494 2.179572
69.0572 0.841529
69.0699 0.456252
70.0651 2.046147
77.0387 0.210668
79.0542 26.11123
80.0494 4.093034
81.0699 61.259009
82.0651 8.586663
84.0808 1.878764
86.0602 0.205855
91.0542 2.672515
93.0575 0.464285
93.0699 3.778984
94.0651 2.221268
95.0492 0.961186
95.0729 1.020985
95.0856 2.980838
96.0807 4.480472
105.0447 0.338017
105.0699 2.926605
106.0653 1.987254
107.073 0.943934
107.0855 2.480716
108.0808 5.460557
109.0649 0.666292
109.0886 0.510537
109.1013 0.608472
110.0964 13.698692
117.0697 0.765671
119.0732 0.229438
119.0854 0.342032
120.0808 2.02618
121.0649 0.254433
121.0886 0.722013
122.0964 5.212632
124.1121 5.171519
131.0732 0.192562
131.0853 0.164641
132.0811 0.621825
134.0964 10.138629
135.1043 2.188756
136.0757 0.435346
136.1121 3.207567
138.1277 1.272246
143.0731 0.379489
144.0808 0.327022
145.0524 0.400849
146.0965 0.503802
148.076 0.138568
148.112 1.017776
152.1072 0.442894
154.0653 0.584553
155.0731 0.638456
156.0809 0.351625
158.06 0.929565
159.0679 0.845491
160.0757 34.251716
162.0913 2.613231
166.0653 0.511842
166.1227 7.83491
167.0725 0.962595
168.0808 0.677827
169.0518 0.831986
169.0885 0.230514
170.0604 0.612366
171.0678 0.451735
172.0757 25.690121
173.0835 11.075045
174.0914 10.148937
175.0623 0.153586
176.0705 0.215072
180.0807 0.608702
181.0885 0.320027
182.0602 0.894841
182.084 0.172644
183.0681 1.499742
183.1035 0.143601
184.0757 41.989822
185.0835 2.485337
186.0914 20.462005
187.0992 0.683857
188.0705 1.097908
188.1069 0.434912
189.0785 2.204417
190.0867 0.24944
192.0813 0.190658
194.0968 0.313901
195.0686 0.454295
195.104 0.18078
196.0758 3.838172
197.0725 0.25567
197.0835 2.397358
198.0914 19.830551
199.0868 3.229405
199.0991 1.087264
200.0707 0.910694
200.107 2.275474
201.0784 0.280137
201.1022 0.438429
202.0863 3.381044
204.0813 0.269463
205.0887 0.219383
206.0967 0.523615
207.1045 0.305487
208.0753 0.143472
209.0837 0.471457
210.0913 5.959265
211.0868 1.826646
211.0992 0.808332
212.0948 0.538158
212.1071 2.403199
213.1022 3.195906
214.0862 1.997716
214.1227 0.163017
215.0941 0.429334
216.102 0.447556
218.0966 0.413521
219.0921 0.311939
219.1046 0.392152
220.0754 0.299174
220.1127 0.164429
221.0834 0.494002
221.107 0.443177
221.1193 0.245915
222.0915 1.056187
223.0988 0.667529
224.0946 0.38461
224.1069 4.50653
225.1023 1.874004
225.1148 0.652638
226.1225 5.232563
227.1179 6.059052
230.0962 0.183287
232.112 0.291695
233.0835 0.153901
233.1088 0.187835
233.12 0.792418
234.0916 1.122627
235.0996 0.58272
236.1067 2.107285
237.1039 0.70696
237.1132 0.734995
238.1098 0.305694
238.1224 2.219235
239.118 2.258485
239.1306 0.381163
240.1255 0.450818
240.1386 0.97111
242.1172 0.269733
246.0925 0.221059
246.1281 0.186911
247.0992 0.350807
247.1356 0.363062
248.1067 1.204381
249.1013 0.265235
249.115 1.394156
250.1095 0.191855
250.1229 2.190152
251.1179 8.908738
252.1257 4.185313
252.1388 1.934283
253.1335 26.908706
254.154 1.793449
260.1055 0.195163
261.1146 0.267723
262.1228 1.399903
263.1175 0.465805
263.1312 0.542165
264.1384 10.266852
265.1333 3.402932
266.1408 1.006266
266.1542 2.283754
268.1339 0.196868
268.1695 0.555385
274.123 0.16153
275.1545 0.565495
276.1383 1.116648
276.1625 0.487525
277.1326 0.879008
278.1543 4.632901
279.1491 12.398901
280.1698 0.558097
282.1489 2.782306
290.1545 0.528668
291.1496 0.469
292.1566 0.819986
296.1644 0.856243
297.1961 2.393561
305.1652 0.856799
307.1805 57.00999
325.191 100.0

