>compound 
>formula C16H14O4
>parentmass 271.0964899295
>ionization [M + H]+
>instrumentation Unknown (LCMS)
>source file:/Users/fanzhoukong/Documents/GitHub/Libgen/data/EAD_PFP/0_unknown_/spectrum.ms
>quality UNKNOWN

>ms2peaks
50.019926 234.0
51.026751 719.0
52.033005 161.0
53.00343 71.0
53.02696 79.0
53.04266 77.0
55.022029 2811.0
57.036178 1232.0
59.016527 797.0
62.020341 44.0
63.025736 190.0
64.03529 37.0
64.834986 22.0
65.042605 1920.0
66.050609 74.0
67.038294 49.0
67.058344 234.0
68.026838 32.0
68.030068 50.0
69.001463 3399.0
71.015262 95.0
74.018196 33.0
75.024501 55.0
76.033335 105.0
77.04461 3801.0
78.049584 1044.0
79.058449 2214.0
81.073578 2121.0
82.045833 64.0
83.050667 46.0
84.029292 17.0
85.032606 2315.0
87.025126 18.0
88.03417 24.0
89.042565 758.0
90.052049 71.0
91.057884 4673.0
92.027949 25.0
93.043773 2270.0
94.043328 179.0
95.051092 152.0
95.089302 39.0
96.032547 50.0
97.064391 45.0
97.071151 91.0
99.047111 88.0
100.030315 26.0
101.042 67.0
102.051854 650.0
103.058769 3592.0
104.058633 35.0
105.040238 85.0
105.074378 1173.0
106.044603 3395.0
106.714479 47.0
107.058817 8250.0
107.891573 58.0
107.950602 34.0
108.34179 21.0
109.034206 251.0
109.042396 148.0
110.036891 101.0
111.042106 39.0
111.048306 178.0
112.00108 26.0
113.028745 824.0
114.049599 61.0
115.060324 4855.0
116.067058 390.0
117.036853 95.0
117.051693 322.0
117.064413 215.0
117.070773 347.0
118.044738 248.0
119.054802 1557.0
120.035897 49.0
120.060587 218.0
120.635534 43.0
120.659204 27.0
121.033951 1503.0
121.045811 2427.0
121.050121 9620.0
121.850077 21.0
122.031816 51.0
122.042636 182.0
123.050071 203.0
123.07615 29.0
125.03792 35.0
125.06311 187.0
126.051014 174.0
127.057159 1796.0
128.066173 2712.0
129.072538 907.0
130.60175 25.0
131.055537 4869.0
132.056662 104.0
133.032197 171.0
133.048026 818.0
134.044231 864.0
135.050976 82.0
135.073735 46.0
137.056285 69.0
137.063165 207.0
138.036279 45.0
138.048939 53.0
139.052114 2370.0
140.062388 255.0
141.075153 2711.0
142.057728 53.0
142.077558 41.0
143.047202 46.0
143.069472 358.0
143.089382 151.0
144.061287 1429.0
144.593214 21.0
145.070691 3763.0
145.770028 26.0
146.042166 56.0
146.059936 37.0
147.048981 4320.0
148.053285 221.0
149.06579 7826.0
150.049354 574.0
151.052989 167.0
151.061419 1419.0
152.067233 8246.0
152.572611 48.0
152.602851 41.0
153.073948 9270.0
154.074273 147.0
154.080353 1783.0
155.091267 7736.0
156.062652 103.0
156.073652 97.0
156.090792 50.0
157.070216 4418.0
158.078561 550.0
159.046896 20.0
159.076536 375.0
159.082715 623.0
160.05162 42.0
160.06153 30.0
161.053315 62.0
161.064505 136.0
161.083155 51.0
161.501182 24.0
161.613242 24.0
162.053149 880.0
162.073109 3152.0
163.056074 924.0
164.063339 1209.0
164.530446 57.0
165.063623 881.0
165.073703 10155.0
166.082128 597.0
166.579905 27.0
167.087302 1591.0
167.52951 29.0
167.793348 21.0
168.062467 7046.0
168.635704 20.0
169.071051 4187.0
170.066046 58.0
170.073706 120.0
170.080096 298.0
170.427764 20.0
171.053711 719.0
171.060121 1835.0
171.071641 933.0
172.085345 120.0
172.089195 557.0
173.04276 24.0
173.06209 111.0
173.06983 58.0
173.09688 44.0
174.044184 33.0
174.059684 57.0
174.072614 16.0
175.039419 62.0
175.052369 91.0
176.069993 377.0
176.080393 73.0
177.063178 7571.0
178.076143 510.0
179.061877 62.0
179.073667 135.0
179.089397 782.0
179.494715 36.0
179.992472 20.0
180.062132 81.0
181.067816 4095.0
182.077621 3127.0
182.477029 53.0
182.511459 42.0
183.087576 11224.0
184.05384 417.0
184.06313 468.0
184.07907 149.0
185.065255 2073.0
185.737531 21.0
186.071429 170.0
186.266588 29.0
186.690646 19.0
187.081684 351.0
189.074013 47.0
190.066708 20.0
192.058537 111.0
192.065327 106.0
193.072651 4113.0
194.079856 552.0
195.086951 1794.0
195.590788 25.0
196.059625 1815.0
197.06634 5109.0
198.059104 59.0
198.070114 243.0
199.079219 908.0
200.064554 265.0
200.082553 301.0
201.092588 150.0
201.537366 34.0
202.048073 23.0
203.070047 31.0
205.065567 67.0
206.076851 30.0
207.068036 59.0
207.084966 230.0
208.05174 50.0
209.063235 542.0
210.071529 2618.0
210.405318 65.0
211.082234 18878.0
212.083969 595.0
212.475036 37.0
213.059463 1589.0
214.067298 191.0
214.083058 72.0
215.073202 100.0
215.086142 224.0
215.096182 179.0
215.114852 347.0
220.055245 25.0
221.0649 2115.0
222.057885 24.0
222.069574 98.0
223.051659 42.0
223.075059 263.0
223.102869 76.0
224.053494 918.0
225.097268 1719.0
226.069793 263.0
227.075457 991.0
228.040412 37.0
228.080342 1898.0
229.045967 83.0
229.088966 108.0
234.136919 40.0
237.059953 269.0
238.068558 382.0
238.283237 18.0
239.077782 13068.0
240.064867 58.0
240.081567 464.0
241.057022 1214.0
241.070712 307.0
242.061886 94.0
242.078656 55.0
242.084736 93.0
242.115246 30.0
243.084121 600.0
243.111611 398.0
246.540432 21.0
249.242627 39.0
251.074007 43.0
252.085522 40.0
253.088157 576.0
254.047521 31.0
254.081871 44.0
254.089681 65.0
254.099051 73.0
255.047786 42.0
255.071256 409.0
256.07511 1591.0
261.923959 30.0
269.08438 182.0
270.067105 44.0
270.094474 191.0
271.101639 10302.0

