>compound 
>formula C19H22O8
>parentmass 379.13874866562
>ionization [M + H]+
>instrumentation Unknown (LCMS)
>source file:/Users/fanzhoukong/Documents/GitHub/Libgen/data/EAD_PFP/0_unknown_/spectrum.ms
>quality UNKNOWN

>ms2peaks
115.052781 52.0
126.045533 369.0
127.054983 1457.0
128.065144 4929.0
129.069264 638.0
130.070614 58.0
131.048924 249.0
132.057905 53.0
133.089965 54.0
139.054656 566.0
140.052216 127.0
141.069626 1797.0
142.074357 178.0
143.087357 1780.0
144.054567 143.0
145.065147 253.0
147.079058 23.0
160.05347 115.0
162.045051 54.0
163.055471 260.0
164.061481 198.0
165.070622 2653.0
166.079052 406.0
167.082952 401.0
168.056852 521.0
169.064152 1943.0
170.075753 506.0
171.076253 1426.0
171.085233 5715.0
173.059033 443.0
174.066983 385.0
175.073974 1246.0
176.061764 348.0
177.069274 154.0
178.078354 569.0
179.079834 145.0
180.060435 201.0
181.068765 3435.0
182.074625 294.0
183.080605 1304.0
184.050836 3495.0
185.067596 178.0
185.098246 149.0
187.077356 195.0
188.058106 48.0
189.072397 233.0
190.077257 100.0
190.999467 47.0
191.077997 131.0
191.086137 157.0
192.074587 82.0
193.066967 127.0
193.083297 129.0
194.074168 274.0
195.079908 3080.0
196.085498 59.0
197.060658 1251.0
198.065808 1960.0
199.087359 6343.0
200.050549 146.0
201.056349 4880.0
202.078599 148.0
203.08946 71.0
205.06407 176.0
206.07675 137.0
207.03415 65.0
208.050261 238.0
209.066031 116.0
209.073121 252.0
210.065811 138.0
211.077941 4802.0
212.086811 267.0
213.063752 158.0
213.088082 414.0
214.063022 37.0
215.074662 334.0
216.078612 417.0
217.090682 5840.0
218.073293 57.0
219.076973 131.0
221.054803 79.0
221.081033 186.0
221.092673 102.0
222.071144 194.0
223.075184 1629.0
224.088824 76.0
225.062144 199.0
225.091524 341.0
227.060855 51.0
227.074135 549.0
229.078775 608.0
229.087665 4239.0
230.094065 31.0
231.077335 55.0
233.099536 48.0
234.066716 96.0
235.070456 580.0
237.079847 169.0
237.093427 516.0
238.061307 40.0
239.067487 218.0
240.081867 238.0
241.090818 3218.0
242.085088 31.0
243.064618 149.0
245.084798 95.0
247.077939 78.0
248.086029 89.0
249.096159 134.0
250.063429 144.0
251.07756 123.0
251.11016 79.0
253.08552 963.0
255.104601 219.0
257.084581 85.0
258.093981 33.0
259.097451 1181.0
261.091232 182.0
263.073622 55.0
264.080362 153.0
265.085833 919.0
267.086473 33.0
267.100903 346.0
268.076793 47.0
269.083423 68.0
271.097454 114.0
276.176015 51.0
277.088425 765.0
279.102706 507.0
281.047076 45.0
281.084856 129.0
283.087206 85.0
283.102036 2547.0
289.085228 217.0
295.099019 2133.0
297.113459 95.0
307.094291 1195.0
313.113063 430.0
319.113214 133.0
325.108515 1392.0
343.116969 564.0
361.147163 41.0
379.150547 140.0
379.171517 99.0
379.223027 67.0

