>compound 
>formula C15H18O7
>parentmass 328.13907391713
>ionization [M + H3N + H]+
>instrumentation Unknown (LCMS)
>source file:/Users/fanzhoukong/Documents/GitHub/Libgen/data/EAD_PFP/0_unknown_/spectrum.ms
>quality UNKNOWN

>ms2peaks
50.015432 55.0
51.023643 362.0
52.029194 21.0
53.038135 346.0
55.018217 593.0
56.064407 44.0
57.033108 84.0
57.067148 21.0
59.04885 1053.0
59.05487 3233.0
59.558821 28.0
60.447401 7.0
63.023474 86.0
64.027564 16.0
65.038785 649.0
66.046796 130.0
67.033677 110.0
67.053727 247.0
69.053809 330.0
69.070909 209.0
70.04069 39.0
71.0131 69.0
73.065102 19.0
75.020694 63.0
77.034786 214.0
77.039076 2059.0
78.048367 153.0
79.055517 1667.0
80.062108 135.0
81.053899 120.0
81.069769 192.0
82.0438 45.0
83.016511 113.0
83.041511 316.0
84.061402 54.0
85.028803 972.0
89.035066 73.0
89.037836 159.0
90.045467 86.0
91.056888 2944.0
92.060799 35.0
93.07305 501.0
94.04238 77.0
95.050161 472.0
96.054672 31.0
97.065423 531.0
98.036844 112.0
98.988735 131.0
101.023436 47.0
102.042127 70.0
102.048057 58.0
103.056968 468.0
104.063839 85.0
105.06959 1285.0
106.042841 37.0
106.080171 51.0
107.051992 2014.0
108.056763 365.0
109.064183 1059.0
110.037224 41.0
111.045555 430.0
112.053296 135.0
113.061427 321.0
115.056549 690.0
115.059699 1309.0
116.06118 181.0
117.0723 1592.0
119.068142 537.0
119.084172 637.0
120.078293 42.0
121.065754 1375.0
122.046445 28.0
123.045216 667.0
124.053516 25.0
125.056067 109.0
125.063737 659.0
126.035158 96.0
126.047258 122.0
127.047879 472.0
127.056709 1989.0
128.06134 1731.0
129.068781 1814.0
130.075712 261.0
130.079072 730.0
131.048433 277.0
131.058513 927.0
131.087673 321.0
132.057423 202.0
132.095683 47.0
133.065754 233.0
133.087224 1616.0
134.049565 36.0
134.073385 108.0
134.111945 28.0
135.050666 1014.0
135.059756 1130.0
135.076826 210.0
137.054848 364.0
137.060578 448.0
138.059009 26.0
138.069369 39.0
139.07841 621.0
140.04706 42.0
141.070261 898.0
142.076162 551.0
143.057533 109.0
143.085653 540.0
144.049324 52.0
144.064614 79.0
144.077544 104.0
144.092834 115.0
145.064605 354.0
145.071685 568.0
145.084665 6535.0
146.081086 69.0
146.110666 64.0
147.099916 1290.0
147.104676 4876.0
147.114167 978.0
147.976867 22.0
148.061487 68.0
148.086517 57.0
149.081208 521.0
149.093188 471.0
150.028829 15.0
151.04326 396.0
152.071981 81.0
153.058122 631.0
154.077873 90.0
155.074143 1521.0
156.087084 40.0
157.102115 1242.0
158.068706 40.0
158.074856 72.0
159.081487 32.0
159.098797 924.0
159.118557 1106.0
160.059088 43.0
160.090068 211.0
161.071999 4790.0
162.070639 94.0
163.08114 5047.0
164.048351 32.0
164.062161 42.0
165.068752 175.0
165.073802 745.0
165.085132 1187.0
166.072123 50.0
166.097383 58.0
167.076024 542.0
168.053715 37.0
168.063875 58.0
168.093075 52.0
169.067366 197.0
169.089026 370.0
169.100496 484.0
171.046187 975.0
171.060277 328.0
172.086808 490.0
173.073869 2961.0
174.07024 212.0
174.08575 138.0
174.54102 21.0
175.114811 8831.0
176.049432 36.0
176.071522 44.0
176.081932 87.0
177.114263 487.0
177.118193 1014.0
178.081663 38.0
179.060834 181.0
179.073944 550.0
180.008545 32.0
180.082145 55.0
181.073396 77.0
181.087906 165.0
182.092477 27.0
183.075988 182.0
183.082628 951.0
184.044879 31.0
184.087399 19.0
185.096269 3960.0
186.06912 92.0
186.09184 53.0
186.497001 15.0
187.110221 4158.0
188.046692 34.0
188.082962 188.0
188.445892 34.0
189.059603 7662.0
190.067124 61.0
190.081994 58.0
191.090875 2504.0
191.105775 490.0
192.080706 93.0
192.087496 72.0
193.086706 23.0
193.122106 4607.0
194.122647 33.0
195.062818 24.0
195.076498 142.0
195.088818 66.0
197.03797 74.0
197.04623 383.0
198.069271 57.0
199.059022 58.0
199.076992 37.0
201.091783 4916.0
202.080684 52.0
202.097394 28.0
202.445715 78.0
203.109715 9962.0
204.057386 50.0
204.074186 55.0
204.107756 44.0
205.113897 2060.0
205.123707 4607.0
206.050758 38.0
207.065859 1264.0
208.036839 17.0
209.05115 51.0
209.08373 840.0
211.067272 121.0
211.075812 841.0
211.598462 15.0
213.090204 1695.0
215.052395 63.0
215.072505 538.0
216.036126 31.0
216.075006 49.0
217.046657 130.0
217.052427 288.0
219.106669 4555.0
220.11417 93.0
221.116701 2223.0
222.095222 13.0
223.058332 30.0
223.097862 122.0
224.893884 41.0
225.074624 51.0
227.076326 45.0
227.089626 184.0
229.086918 4044.0
230.320699 16.0
231.104869 5127.0
233.080821 1308.0
234.131912 27.0
235.060663 361.0
237.074535 31.0
237.113755 565.0
239.069736 180.0
241.056548 18.0
242.091919 41.0
243.08214 15.0
245.091682 8.0
246.277073 53.0
247.103323 5581.0
249.115445 4329.0
251.096917 161.0
252.232958 25.0
253.073788 1030.0
255.33696 30.0
257.082182 2930.0
260.241095 19.0
262.129826 28.0
263.091867 17.0
265.110509 5310.0
266.02046 18.0
267.087231 18.0
267.120861 28.0
269.105052 42.0
274.179587 16.0
275.091968 2309.0
281.054403 19.0
283.023674 24.0
283.119285 61.0
283.139065 8.0
293.102293 3384.0
295.084665 31.0
296.457736 36.0
302.341201 8.0
310.127338 18.0
311.116659 4450.0
326.973693 8.0
328.140324 2259.0

