>compound 
>formula C26H45NO7S
>parentmass 516.299
>ionization [M + H]+
>instrumentation Unknown (LCMS)
>source file:/Users/fanzhoukong/Documents/GitHub/Libgen/data/NIST_MONA/0_unknown_/spectrum.ms
>quality UNKNOWN

>ms2peaks
49.0651 0.264437
49.2766 0.426512
49.9822 0.247377
55.193 0.179135
57.0365 0.213256
58.1933 0.204726
60.0081 0.196196
61.0763 0.477693
62.0346 0.187665
63.174 0.460633
64.015 0.290028
65.0139 0.213256
65.0426 0.272968
66.1025 0.298558
66.1309 0.290028
67.0538 2.158151
69.0321 0.238847
69.0694 1.151582
69.2455 0.179135
70.2534 0.247377
71.147 0.196196
75.0081 0.204726
76.2038 0.324149
77.0841 0.162075
77.1201 0.162075
77.9881 0.153544
78.0098 0.400921
78.0669 0.230316
78.108 0.332679
79.0536 1.561034
79.1195 0.170605
79.246 0.196196
79.263 0.170605
80.0364 0.170605
80.1426 0.255907
80.2492 0.281498
82.0143 0.290028
82.0992 0.247377
83.0368 0.238847
83.0474 0.750661
83.0693 0.179135
83.0854 1.723108
84.0833 0.392391
84.1953 0.196196
85.0641 4.666041
85.1825 0.247377
85.9934 0.307089
86.1751 0.170605
87.0474 0.281498
88.2637 0.417982
89.0168 0.486224
89.1541 0.255907
90.0711 0.162075
91.0544 0.665359
91.2994 0.230316
91.3453 0.281498
92.1779 0.153544
93.0302 0.34121
93.0694 2.85763
93.0993 0.170605
93.1155 0.247377
94.1714 0.170605
95.0852 2.746737
96.0941 0.153544
96.1881 0.238847
96.268 0.170605
97.065 0.494754
97.9911 0.162075
98.1 0.400921
99.0801 0.204726
99.195 0.221786
100.0258 0.255907
100.1022 0.204726
101.1407 0.230316
101.1942 0.153544
102.1443 0.179135
102.2054 0.170605
103.1484 0.204726
104.2354 0.179135
105.0696 2.106969
105.0818 0.230316
105.0992 0.196196
105.1189 0.204726
105.2431 0.162075
106.2169 0.307089
106.3322 0.272968
107.0847 4.836646
107.1464 0.307089
107.9863 0.170605
108.0155 0.742131
108.0899 0.750661
108.1362 0.179135
109.0064 0.221786
109.0529 0.238847
109.0667 0.648298
109.1011 2.524951
109.1326 0.324149
109.2917 0.230316
109.3317 0.298558
109.9699 0.247377
110.0091 0.272968
110.0963 0.179135
111.0344 0.153544
111.0794 0.443572
111.2955 0.392391
111.9897 0.554466
112.2637 0.281498
113.2269 0.238847
113.9787 0.272968
113.9991 0.238847
114.1015 0.221786
115.0758 0.204726
116.0608 0.392391
116.2595 0.332679
116.2737 0.153544
117.1925 0.264437
118.0707 0.648298
118.9678 0.153544
119.0479 0.204726
119.0852 1.757229
120.0156 0.34121
120.1121 0.204726
120.1376 0.298558
120.1927 0.290028
120.2348 0.247377
121.0201 0.315619
121.0664 0.221786
121.1 1.219824
121.9902 0.230316
121.9961 0.281498
122.0452 0.255907
122.0727 0.255907
122.1049 0.392391
122.9769 0.35827
123.0826 0.580056
123.118 0.435042
123.2774 0.187665
123.9841 0.187665
124.0122 0.221786
124.024 0.170605
124.0808 0.187665
124.9967 0.196196
125.0945 0.810373
125.161 0.221786
125.2834 0.170605
126.0217 15.832125
127.0058 0.315619
127.0179 0.255907
127.027 0.426512
127.0543 0.179135
128.0191 0.571526
128.0954 0.383861
128.1083 0.213256
128.1488 0.179135
129.0213 0.213256
129.07 0.443572
129.9805 0.162075
130.1923 0.153544
130.3151 0.162075
130.346 0.230316
131.0661 0.170605
131.2258 0.153544
131.2502 0.204726
131.9873 0.460633
132.2558 0.221786
132.2875 0.153544
132.9754 0.153544
133.0997 0.69948
133.1318 0.196196
133.1599 0.332679
133.2985 0.179135
133.995 0.187665
134.0116 0.477693
134.0464 0.170605
134.0917 0.639768
134.1689 0.179135
134.1781 0.221786
134.2687 0.162075
135.0103 0.204726
135.0461 0.204726
135.0573 0.153544
135.0802 0.400921
135.1115 0.767722
135.1778 0.247377
135.2962 0.409452
135.999 0.221786
136.1271 0.324149
136.2105 0.460633
136.3153 0.230316
137.0081 0.204726
137.0909 0.162075
137.11 0.230316
137.1199 0.392391
137.1561 0.162075
137.174 0.170605
137.2465 0.264437
138.0533 0.230316
138.07 0.264437
138.0832 0.298558
138.1298 0.153544
138.1495 0.264437
138.1594 0.605647
138.1709 0.187665
138.297 0.187665
139.0353 0.426512
139.0754 0.187665
139.2175 0.213256
140.119 0.153544
140.2557 0.162075
141.0693 0.187665
141.0871 0.272968
141.1206 0.162075
141.2115 0.238847
141.2828 0.153544
141.299 0.3668
142.0416 0.179135
142.1796 0.400921
142.2771 0.162075
142.9957 0.187665
143.086 0.827433
143.1351 0.255907
143.2027 0.187665
143.2307 0.383861
143.2469 0.238847
143.2625 0.537405
143.3542 0.247377
144.1929 0.290028
144.2173 0.435042
145.0383 0.255907
145.0613 0.162075
145.1011 1.535443
145.1296 0.213256
145.1668 0.162075
146.015 0.187665
146.1029 0.238847
146.1503 0.196196
146.3396 0.264437
147.0033 0.153544
147.1154 2.115499
147.2668 0.247377
147.2946 0.179135
147.9886 0.255907
148.1212 0.34974
148.1461 0.179135
148.1679 0.196196
149.0961 0.528875
149.1302 0.921266
149.1818 0.477693
149.2928 0.315619
149.3131 0.162075
149.3213 0.247377
150.0174 0.35827
150.0982 0.298558
150.1347 0.213256
150.1492 0.153544
151.0118 0.170605
151.0407 0.196196
151.0541 0.179135
151.1112 0.417982
151.1535 0.213256
151.208 0.272968
152.1061 0.196196
152.2961 0.153544
152.9943 0.187665
153.0205 0.34121
153.0819 0.281498
153.1611 0.153544
153.1797 0.179135
153.2519 0.204726
153.2824 0.213256
154.1058 0.196196
154.971 0.213256
155.0308 0.187665
155.0846 0.290028
155.1147 0.162075
155.1685 0.162075
155.2861 0.238847
156.0395 0.153544
156.0661 0.238847
156.0919 0.443572
156.1078 0.230316
156.1385 0.170605
156.34 0.153544
156.9678 0.281498
156.9999 0.281498
157.0137 0.221786
157.0485 0.383861
157.0997 4.162757
157.1438 0.443572
157.9791 0.179135
157.9948 0.162075
158.05 0.187665
158.1058 0.375331
158.2357 0.238847
158.3381 0.153544
158.981 0.503284
159.1162 7.992835
159.1403 0.537405
159.9937 0.426512
160.0109 0.383861
160.027 0.179135
160.1196 0.818903
160.1658 0.153544
160.1906 0.392391
160.2318 0.196196
160.2664 0.179135
161.0964 0.221786
161.1162 0.162075
161.1319 1.441611
161.1746 0.554466
161.2301 0.196196
161.2837 0.179135
161.3256 0.213256
162.1452 0.170605
162.1854 0.213256
162.2314 0.187665
163.1118 0.605647
163.1974 0.230316
163.2665 0.170605
163.3005 0.281498
163.9969 0.153544
164.0193 0.196196
164.0376 0.887145
164.3121 0.255907
164.9793 0.204726
165.042 0.34121
165.1382 0.153544
166.0028 0.153544
166.029 0.213256
167.0859 0.247377
167.1341 0.392391
167.1916 0.170605
167.2227 0.298558
167.9873 0.494754
168.0518 0.290028
168.066 0.298558
168.0866 0.400921
168.2754 0.162075
168.3483 0.290028
169.0316 0.196196
169.1027 1.535443
169.1492 0.153544
170.0621 0.255907
170.0839 0.162075
170.1029 0.255907
170.133 0.3668
171.0661 0.290028
171.0825 0.255907
171.1167 3.454747
171.1684 0.528875
171.2227 0.230316
172.0261 0.375331
172.1207 0.213256
172.3131 0.281498
173.0048 0.290028
173.0641 0.486224
173.0768 0.170605
173.0927 0.187665
173.1329 2.192272
173.2886 0.443572
173.9497 0.204726
174.1014 0.179135
174.942 0.264437
175.0425 0.196196
175.097 0.187665
175.1107 1.42455
175.1473 2.83204
175.2548 0.255907
175.2674 0.170605
175.2757 0.213256
175.3343 0.204726
175.9768 0.290028
176.0139 0.213256
176.1175 0.255907
176.1481 0.298558
176.1695 0.196196
176.2023 0.221786
176.9721 0.187665
177.0223 0.170605
177.1126 0.170605
177.1266 1.279536
177.1629 0.315619
177.9912 0.281498
178.1776 0.417982
178.1959 0.162075
179.0845 0.170605
179.3032 0.162075
180.0169 0.162075
180.0355 0.929796
180.2284 0.153544
180.2908 0.324149
181.1013 0.520345
181.1772 0.153544
181.272 0.272968
181.3006 0.255907
182.0127 0.213256
182.0672 0.332679
182.2434 0.170605
182.2859 0.332679
183.0663 0.247377
183.0978 0.281498
183.1161 4.657511
183.1521 0.34121
183.9563 0.213256
184.0073 0.375331
184.125 0.35827
184.1491 0.170605
184.2227 0.187665
184.2707 0.272968
184.3198 0.255907
185.0976 1.680457
185.1319 5.68967
185.9728 0.179135
185.9871 0.153544
186.0968 0.264437
186.1342 0.938326
186.1819 0.392391
187.013 0.153544
187.0335 0.460633
187.1117 1.040689
187.1465 2.746737
187.2062 0.3668
188.1145 0.290028
188.1532 0.221786
188.3308 0.196196
189.1281 1.509852
189.163 1.595155
189.2708 0.409452
189.9597 0.324149
190.0104 0.196196
190.1379 0.213256
190.1934 0.153544
191.1423 0.375331
191.2025 0.153544
191.2207 0.452103
191.9358 0.230316
191.9802 0.187665
192.0249 0.332679
192.1015 0.179135
192.1603 0.324149
192.1979 0.204726
192.245 0.196196
192.3104 0.255907
192.9857 0.247377
193.1215 0.238847
193.221 0.230316
193.2875 0.187665
193.3032 0.187665
194.0238 0.290028
194.0472 0.511814
194.1113 0.213256
194.1369 0.417982
195.0232 0.230316
195.0898 0.281498
195.1166 1.79135
195.1942 0.230316
195.2998 0.221786
196.0735 0.179135
196.1193 0.298558
196.1465 0.162075
196.2111 0.213256
196.2192 0.272968
197.1324 2.50789
197.1938 0.238847
198.0465 0.34974
198.1333 0.221786
198.1463 0.230316
198.2013 0.179135
198.3265 0.511814
199.1476 14.296682
199.9488 0.324149
199.9813 0.213256
200.1499 2.618784
200.9773 0.204726
201.04 0.255907
201.0993 0.494754
201.1262 0.307089
201.1638 2.524951
201.2195 0.196196
201.9383 0.238847
201.9815 0.162075
202.001 0.179135
202.0464 0.332679
202.1024 0.272968
202.1333 0.315619
202.1686 0.452103
202.2805 0.230316
202.3304 0.179135
203.0617 0.204726
203.118 0.290028
203.1431 0.784782
203.1771 0.793312
203.314 0.221786
203.963 0.204726
204.1454 0.383861
204.2354 0.213256
204.2574 0.383861
205.1549 0.332679
205.2447 0.153544
206.0493 0.3668
206.2142 0.247377
206.3169 0.290028
207.0904 0.315619
207.12 0.460633
207.1647 0.34974
207.1898 0.162075
207.2415 0.170605
208.0633 23.424038
209.1322 26.486394
210.0685 0.801843
210.0883 0.392391
210.1358 5.945577
210.1975 0.477693
211.1473 5.954107
211.2717 0.298558
212.0426 0.238847
212.1499 0.656828
212.2636 0.400921
212.3051 0.392391
212.3428 0.162075
213.163 18.757997
214.0455 0.196196
214.1086 0.255907
214.168 2.618784
215.039 0.409452
215.09 0.221786
215.1427 1.168643
215.1601 0.179135
215.1792 2.021667
215.2064 0.264437
215.3142 0.153544
215.9486 0.153544
215.9704 0.153544
216.0635 0.494754
216.1447 0.3668
216.1817 0.494754
216.2277 0.221786
217.1566 0.426512
218.1601 0.324149
218.2639 0.162075
218.3254 0.179135
219.1444 0.153544
220.0071 0.187665
220.1054 0.196196
220.1597 0.477693
221.017 0.196196
221.1308 0.469163
221.2595 0.196196
222.0121 0.272968
222.0792 0.998038
222.1075 0.264437
222.2223 0.213256
222.2611 0.170605
222.9709 0.221786
222.9914 0.307089
223.0154 0.255907
223.0689 0.187665
223.0853 0.204726
223.147 3.599761
223.2691 0.315619
224.0675 0.153544
224.1498 0.571526
224.1712 0.255907
225.1264 0.400921
225.1639 5.68114
226.1048 0.162075
226.1663 1.42455
226.228 0.153544
227.1427 36.424124
227.1788 13.255992
228.0717 0.537405
228.0932 0.281498
228.147 5.519065
228.1818 2.687026
229.1584 5.971168
229.1904 0.622707
230.1279 0.204726
230.1386 0.196196
230.1603 0.793312
231.0072 0.452103
231.1735 1.040689
232.0898 0.238847
232.1509 0.170605
232.1797 0.238847
232.962 0.170605
233.2532 0.162075
233.9352 0.3668
234.0491 0.187665
234.0807 1.43308
234.1343 0.35827
234.2536 0.264437
234.9994 0.35827
235.0813 0.307089
235.1467 0.972447
235.3435 0.221786
236.0041 0.460633
236.0983 0.34974
236.1266 0.153544
236.2625 0.272968
237.1123 0.298558
237.164 3.958031
238.154 0.230316
238.1664 0.571526
238.3326 0.247377
238.9702 0.187665
239.1336 0.153544
239.1788 2.414058
240.1773 0.426512
240.2017 0.170605
240.2864 0.153544
241.0176 0.443572
241.1601 5.544656
241.1951 7.532202
241.9479 0.153544
242.0514 0.298558
242.0644 0.170605
242.1609 0.818903
242.1985 2.072848
242.2503 0.272968
243.1407 0.272968
243.1744 3.352384
243.9604 0.162075
244.1758 0.895675
245.1479 0.162075
245.1892 0.520345
246.0805 0.537405
246.1919 0.272968
246.2634 0.238847
247.2502 0.187665
247.3277 0.162075
248.0958 3.650943
248.22 0.580056
248.2849 0.281498
248.9888 0.162075
249.0268 0.170605
249.0976 0.443572
249.1617 0.963917
249.2561 0.162075
250.1122 0.929796
250.1698 0.400921
250.2677 0.196196
251.1777 1.526913
252.083 0.255907
252.1799 0.400921
252.2699 0.162075
252.2891 0.162075
253.1597 0.588587
253.1941 2.047258
253.2934 0.298558
254.1006 0.179135
254.1997 0.255907
255.1732 3.267082
255.2091 0.682419
255.2708 0.443572
256.1768 0.597117
256.1972 0.162075
256.2175 0.315619
257.0165 0.187665
257.074 0.179135
257.1892 0.486224
257.2153 0.255907
258.1131 0.290028
259.1149 0.162075
259.164 0.196196
259.9369 0.196196
260.0137 0.290028
260.0945 1.364838
260.1674 0.153544
261.0968 0.179135
261.1395 0.230316
261.1613 0.307089
261.2165 0.255907
261.9864 0.221786
262.0516 0.170605
262.1118 1.876653
262.2129 0.247377
262.267 0.162075
263.117 0.656828
263.1802 2.414058
263.3547 0.315619
264.1782 0.520345
264.2867 0.187665
265.1163 0.230316
265.1934 0.810373
266.0199 0.221786
266.1487 0.153544
267.0285 0.187665
267.176 0.597117
267.1981 0.281498
267.2118 0.392391
267.2334 0.238847
268.1755 0.238847
268.2123 0.272968
268.2249 0.290028
268.2571 0.255907
268.9507 0.204726
269.1879 0.452103
270.9526 0.170605
271.0904 0.230316
271.1666 0.255907
271.2021 0.230316
271.2779 0.324149
271.291 0.230316
272.3289 0.170605
273.0224 0.264437
273.3362 0.324149
273.9445 0.162075
273.9897 0.34121
274.0204 0.170605
274.1119 2.354346
275.1092 0.307089
276.1012 0.417982
276.1311 0.469163
277.1283 0.187665
277.1951 2.50789
278.0214 0.281498
278.1985 0.562996
278.9632 0.213256
279.1435 0.187665
279.18 0.162075
279.2094 1.356308
279.239 0.264437
279.9474 0.179135
280.1308 0.281498
280.2152 0.503284
281.04 0.170605
281.0658 0.213256
281.1888 2.004606
281.2266 1.151582
282.0134 0.264437
282.1111 0.324149
282.196 0.298558
282.2302 0.383861
283.0683 0.315619
283.1858 0.179135
283.208 0.71654
283.2448 0.264437
284.0194 0.35827
284.0307 0.196196
284.1572 0.272968
284.2172 0.290028
284.245 0.264437
284.2792 0.230316
285.1028 0.179135
285.2546 0.255907
286.1057 0.690949
286.2931 0.230316
286.3441 0.162075
287.2052 0.196196
287.2334 0.272968
287.9766 0.187665
288.1281 0.938326
289.1299 0.494754
290.0967 0.153544
290.1247 0.213256
290.1986 0.187665
290.3051 0.298558
290.9629 0.213256
291.2098 0.895675
292.0243 0.213256
292.0612 0.230316
292.133 0.34121
292.2146 0.315619
292.3393 0.162075
292.9496 0.196196
293.0496 0.213256
293.1014 0.315619
293.1271 0.196196
293.2262 3.847138
293.2686 0.213256
293.3119 0.34974
293.3402 0.204726
294.0067 0.170605
294.0728 0.545935
294.2297 0.827433
295.2051 4.666041
295.2415 8.223151
295.9526 0.230316
296.0082 0.375331
296.0866 0.162075
296.2095 0.895675
296.246 1.748699
296.3427 0.272968
297.0759 0.196196
297.2459 0.272968
299.1378 0.272968
300.006 0.153544
300.0193 0.153544
300.1252 1.885183
300.1476 0.324149
300.9917 0.153544
301.1288 0.34121
302.0201 0.153544
302.1401 0.545935
302.2228 0.315619
302.3418 0.298558
303.1288 0.255907
303.1472 0.417982
304.3566 0.230316
305.0687 0.162075
305.0817 0.162075
305.2036 0.221786
305.9576 0.221786
307.0504 0.179135
307.2421 0.204726
307.3119 0.247377
308.2194 0.153544
308.3259 0.170605
308.9616 0.324149
309.0141 0.281498
309.1217 0.409452
309.2241 0.452103
309.2558 5.604367
309.9634 0.187665
309.9874 0.170605
310.078 0.230316
310.136 0.238847
310.1919 0.213256
310.2398 0.230316
310.2605 1.305127
311.1125 0.153544
311.2502 0.170605
311.9867 0.170605
312.159 0.187665
312.206 0.221786
312.2206 0.153544
312.2939 0.170605
313.3208 0.238847
314.0029 0.230316
314.1222 0.162075
314.1459 1.023629
314.2299 0.255907
315.1857 0.170605
316.1391 0.290028
316.1556 0.844494
316.2914 0.221786
317.022 0.238847
317.3511 0.34121
318.1679 0.264437
319.242 55.216242
320.2455 12.81242
320.9907 0.221786
321.1484 0.324149
321.2501 1.927834
321.3397 0.264437
321.964 0.162075
322.0921 0.213256
323.1293 0.221786
323.2077 0.213256
324.0115 0.409452
324.1232 0.170605
326.1376 0.153544
326.3545 0.179135
327.1369 0.170605
327.269 0.179135
327.2934 0.187665
328.1573 0.963917
328.241 0.179135
328.3032 0.170605
329.1547 0.469163
330.1783 0.230316
330.9773 0.170605
332.2615 0.34974
334.072 0.179135
336.2394 0.153544
336.2504 0.153544
336.3314 0.272968
337.2523 100.0
338.256 23.270494
339.1635 0.179135
339.2426 0.162075
339.2588 1.492792
340.0009 0.230316
340.1139 0.255907
340.1333 0.247377
340.1567 0.511814
340.1901 0.196196
340.2644 0.238847
341.16 0.298558
342.1751 1.091871
344.1879 0.801843
344.9866 0.426512
345.1568 0.153544
345.2705 0.153544
347.0678 0.324149
347.2877 0.213256
349.098 0.204726
351.9778 0.281498
352.1576 2.379937
352.1945 0.153544
353.1581 0.247377
353.2433 0.162075
354.0033 0.281498
354.1472 0.238847
354.1719 1.927834
354.3255 0.162075
355.1773 0.213256
355.2662 1.41602
356.026 0.281498
356.1788 0.622707
356.1908 0.656828
356.2645 0.537405
357.1862 0.204726
358.1992 0.187665
358.2758 0.204726
358.9828 0.272968
361.0054 0.170605
361.1028 0.221786
362.2802 0.162075
365.08 0.213256
366.1743 0.818903
367.0277 0.162075
367.1741 0.537405
368.1872 2.635844
368.2259 0.179135
368.2645 0.196196
369.1294 0.196196
369.1936 0.264437
370.1797 0.34121
370.1905 0.247377
372.9561 0.153544
374.0344 0.187665
377.0356 0.571526
377.2801 0.196196
377.9698 0.272968
380.1914 0.196196
380.207 0.170605
382.0279 0.247377
382.1981 0.255907
383.0667 0.221786
383.209 0.187665
384.2225 0.230316
385.2253 0.307089
387.1936 0.255907
388.1956 0.213256
390.1493 0.153544
392.1946 0.34974
392.2389 0.400921
394.1819 0.238847
394.2072 0.196196
398.3486 0.170605
400.1421 0.247377
400.181 0.170605
404.2209 0.204726
406.2007 0.3668
407.3261 0.153544
407.9392 0.213256
408.2244 0.904205
409.2241 0.392391
410.216 0.170605
410.262 0.170605
417.1971 0.187665
417.2374 0.255907
420.2196 0.460633
423.2229 0.179135
428.1354 0.272968
429.2866 0.153544
431.1444 0.170605
433.2789 0.272968
434.247 0.281498
436.1922 0.170605
436.9868 0.162075
441.9394 0.153544
441.9955 0.162075
443.9574 0.162075
444.2585 0.980978
445.1386 0.162075
445.1871 0.162075
445.2149 0.162075
445.2616 0.332679
446.1042 0.179135
448.9383 0.196196
453.1892 0.213256
457.1861 0.162075
459.0271 0.170605
461.202 0.196196
462.2674 66.228781
463.2704 16.898405
463.9981 0.264437
464.16 0.230316
464.2113 0.528875
464.2685 4.290711
465.1033 0.281498
465.188 0.264437
465.2685 0.673889
466.214 0.204726
466.271 0.162075
466.2979 0.170605
467.0624 0.170605
467.2188 0.153544
472.1892 0.153544
480.2818 0.562996
480.3157 0.298558
480.9799 0.230316
485.0247 0.230316
490.9815 0.264437
498.2782 0.153544
501.9376 0.162075
502.2449 0.153544
519.2658 0.34974
521.1833 0.162075

