>compound 
>formula C20H26O2
>parentmass 299.2006
>ionization [M + H]+
>instrumentation Unknown (LCMS)
>source file:/Users/fanzhoukong/Documents/GitHub/Libgen/data/NIST_MONA/0_unknown_/spectrum.ms
>quality UNKNOWN

>ms2peaks
55.0179 0.248736
55.0543 0.431926
67.0543 1.627562
69.0334 0.214161
69.0699 0.628379
79.0542 2.332905
81.0699 4.911548
83.0492 10.738654
91.0543 2.501689
93.07 4.427721
95.0492 0.575237
95.0856 4.497721
97.0649 1.025925
105.07 5.487225
107.0492 4.426666
107.0856 4.493052
109.0649 24.702634
109.1012 2.319944
111.0805 2.336783
117.0699 3.663111
119.0856 10.281627
121.0649 1.730467
121.1012 3.328436
123.0805 2.677768
123.117 0.796752
127.0755 0.70546
129.0699 2.501161
131.0856 7.941709
133.0647 0.989377
133.1012 4.928533
135.0805 6.274679
135.1168 1.716032
137.0963 1.167381
141.0698 1.065452
143.0856 5.119693
145.1013 10.41354
147.0805 2.181009
147.1168 2.766482
149.0961 5.099729
149.1326 0.644153
151.1118 0.469372
154.0776 0.236518
155.0855 2.156142
157.0651 0.738473
157.1013 5.906434
159.0805 2.379748
159.1169 4.767895
161.0962 3.581381
161.1325 1.901937
163.1118 4.134574
165.0707 0.341474
167.0854 1.162341
169.1013 5.671665
171.1169 10.965249
172.1249 0.281075
173.0962 1.552874
173.1325 6.71352
175.1118 3.327713
175.1479 0.479833
177.1276 0.565177
179.0855 0.513148
181.1013 2.965865
182.1091 0.276269
183.117 4.512283
184.1251 0.311528
185.0966 2.738382
185.1326 4.830726
187.1118 2.784863
187.1485 0.665035
189.1275 2.440274
189.1638 0.258171
193.1013 0.891102
194.1096 0.229202
195.117 2.522004
197.0965 0.702218
197.1328 2.71961
198.1404 0.271132
199.112 1.649587
199.1482 2.878411
201.1276 1.944452
201.1641 0.535759
203.1432 0.824832
206.1093 0.258308
207.1172 3.239566
208.125 0.332293
209.1325 1.602803
211.1123 1.222925
211.1483 4.95046
213.1277 1.30992
213.1639 6.383131
215.1432 0.768907
219.1176 0.285899
221.1325 4.392921
222.1403 0.689433
223.1482 7.365525
225.1274 1.515584
225.1639 0.801167
227.1431 0.865434
229.1589 1.394922
231.1745 22.289063
233.1317 0.224387
234.1401 0.580091
235.1484 2.595442
237.1642 1.825217
239.1431 1.033661
239.1797 3.306899
241.1591 1.432896
248.1562 0.675593
253.1589 2.048754
253.195 1.227907
257.1899 1.269426
263.1796 6.901085
266.1663 0.574299
281.1901 13.597463
299.2007 100.0

